Gx,Gy,Gz,Ax,Ay,Az,timestamp
0.7195121951219513,1.3341463414634147,16.0,-0.7120361328125,-0.0478515625,0.6895751953125,1760515148.238476
-0.07317073170731704,0.6634146341463415,-0.036585365853658625,-0.705078125,-0.04248046875,0.67822265625,1760515148.3508816
0.5975609756097562,0.05365853658536585,0.3292682926829268,-0.7047119140625,-0.056884765625,0.6866455078125,1760515148.4599717
0.17073170731707324,-1.2878048780487807,2.8902439024390247,-0.7061767578125,-0.0428466796875,0.6856689453125,1760515148.5693665
-0.6829268292682927,0.9682926829268292,-0.9512195121951221,-0.711181640625,-0.0528564453125,0.68505859375,1760515148.6783323
0.35365853658536595,1.2121951219512195,0.573170731707317,-0.705078125,-0.0418701171875,0.6898193359375,1760515148.789942
-0.3170731707317073,0.41951219512195126,-0.5243902439024392,-0.7109375,-0.04345703125,0.68115234375,1760515148.8988612
-0.8048780487804879,2.1878048780487807,-2.353658536585366,-0.7120361328125,-0.0556640625,0.6868896484375,1760515149.0079384
4.195121951219512,-2.9341463414634146,0.39024390243902435,-0.703125,-0.05078125,0.68310546875,1760515149.1170268
-44.341463414634156,-29.153658536585368,-4.365853658536586,-0.79443359375,-0.12890625,0.994140625,1760515149.2261431
-70.56097560975611,-89.94634146341464,37.28048780487805,-0.11376953125,-0.369873046875,0.0911865234375,1760515149.3352823
212.54878048780492,103.89512195121952,53.37804878048781,-0.69580078125,-0.1583251953125,0.917236328125,1760515149.4447272
-30.682926829268293,-25.12926829268293,-29.060975609756103,-1.027099609375,-0.0137939453125,1.246826171875,1760515149.5546954
68.89024390243902,21.7609756097561,146.609756097561,0.3203125,-0.585205078125,-0.663818359375,1760515149.663959
-61.841463414634156,136.51707317073172,44.78048780487805,-0.7998046875,0.56591796875,0.8609619140625,1760515149.773478
-46.41463414634147,-220.06829268292685,59.23170731707317,-0.289306640625,-0.1728515625,0.7568359375,1760515149.8936973
-41.41463414634147,61.7609756097561,-31.987804878048784,0.1099853515625,-0.0419921875,-0.10107421875,1760515150.0067816
-96.17073170731709,49.44390243902439,-86.3170731707317,-1.4305419921875,-0.29736328125,1.419677734375,1760515150.1172142
-57.085365853658544,-66.34878048780487,-23.756097560975615,-0.5947265625,-0.39697265625,0.7603759765625,1760515150.2281108
53.09756097560976,-102.08048780487805,74.23170731707319,-0.4434814453125,0.0985107421875,0.72998046875,1760515150.33751
-46.963414634146346,179.13902439024392,-0.7682926829268294,-0.5631103515625,0.337646484375,0.8013916015625,1760515150.448231
-30.378048780487806,2.065853658536586,91.85365853658539,-0.744384765625,-0.8614501953125,0.8519287109375,1760515150.5574872
93.58536585365854,-90.61707317073171,-1.25609756097561,-0.1390380859375,0.9583740234375,0.2081298828125,1760515150.6676788
-16.29268292682927,1.8219512195121952,17.341463414634145,-0.8123779296875,-0.3367919921875,1.150390625,1760515150.7796052
129.80487804878052,1.8829268292682928,25.390243902439025,-0.2296142578125,0.05078125,1.070556640625,1760515150.8911986
162.00000000000003,128.52926829268296,-20.03658536585366,-0.0899658203125,-0.12744140625,0.8751220703125,1760515151.0008578
-64.09756097560977,-34.15365853658537,38.37804878048781,-0.7222900390625,-0.0869140625,0.9561767578125,1760515151.1102233
-16.71951219512195,-7.873170731707318,-13.451219512195122,-0.4664306640625,0.381103515625,0.7086181640625,1760515151.2250552
51.02439024390244,28.895121951219515,37.707317073170735,-0.485595703125,-0.4609375,0.787353515625,1760515151.3366833
-27.878048780487806,2.065853658536586,28.01219512195122,-0.6522216796875,-0.385498046875,0.88671875,1760515151.4469569
80.17073170731707,-86.95853658536585,56.0,-0.3878173828125,0.4808349609375,0.5399169921875,1760515151.5586498
74.4390243902439,-1.0439024390243905,-1.5000000000000002,-0.70458984375,0.14208984375,1.0166015625,1760515151.6682715
-46.963414634146346,-20.06829268292683,22.402439024390244,-0.6258544921875,-0.3851318359375,0.8590087890625,1760515151.777908
-48.00000000000001,-40.49512195121952,-4.853658536585366,-0.5877685546875,-0.041015625,0.8895263671875,1760515151.8979123
70.47560975609757,74.3829268292683,16.73170731707317,-0.0535888671875,-0.1806640625,0.48974609375,1760515152.0087914
28.82926829268293,-0.9219512195121953,9.04878048780488,-1.0802001953125,-0.111328125,1.133056640625,1760515152.117816
-25.621951219512198,-63.543902439024386,-38.085365853658544,-0.5831298828125,0.0714111328125,0.8643798828125,1760515152.226975
-104.52439024390245,115.11463414634149,7.03658536585366,-0.674560546875,-0.0560302734375,1.2733154296875,1760515152.336433
-17.51219512195122,10.236585365853658,38.6829268292683,-0.4443359375,-0.2811279296875,0.725830078125,1760515152.4456918
20.10975609756098,-61.16585365853659,-30.52439024390244,-0.3370361328125,0.08740234375,0.9405517578125,1760515152.554716
40.59756097560976,13.95609756097561,-59.243902439024396,-0.1082763671875,-0.093994140625,0.311279296875,1760515152.6636994
-108.3048780487805,-11.165853658536587,-13.878048780487806,-1.95556640625,-0.3084716796875,1.169677734375,1760515152.772684
-72.75609756097562,-38.90975609756098,-56.6829268292683,-1.031982421875,0.02734375,1.197509765625,1760515152.881722
82.1829268292683,1.6390243902439026,25.817073170731707,-0.22607421875,0.478759765625,0.705078125,1760515152.991086
25.658536585365855,43.59024390243903,37.34146341463415,-2.0,-0.6292724609375,1.99993896484375,1760515153.1001546
-14.890243902439025,-19.33658536585366,-25.82926829268293,-0.577880859375,0.0247802734375,0.769287109375,1760515153.2091632
-1.4146341463414636,2.7975609756097564,-2.658536585365854,-0.632080078125,0.1060791015625,0.7396240234375,1760515153.3181021
-15.804878048780488,3.163414634146342,2.707317073170732,-0.6724853515625,0.0872802734375,0.7452392578125,1760515153.427428
-42.57317073170732,23.22439024390244,-2.780487804878049,-0.8253173828125,-0.25927734375,0.2486572265625,1760515153.5395832
279.37804878048786,78.83414634146342,31.243902439024392,-0.070068359375,0.160400390625,0.2159423828125,1760515153.650783
74.3780487804878,-33.66585365853659,48.5609756097561,-0.6842041015625,-0.0238037109375,0.3759765625,1760515153.7638109
6.024390243902439,-2.751219512195122,-4.0,-0.8297119140625,0.0167236328125,0.56201171875,1760515153.872915
-2.4512195121951224,0.7853658536585366,1.7926829268292683,-0.79736328125,-0.009521484375,0.5745849609375,1760515153.983402
-0.07317073170731704,3.590243902439025,-0.0975609756097562,-0.8023681640625,-0.0091552734375,0.5706787109375,1760515154.092712
-0.13414634146341461,1.7609756097560976,-0.3414634146341465,-0.8028564453125,-0.0101318359375,0.5694580078125,1760515154.2053325
-0.3780487804878049,0.5414634146341464,-0.036585365853658625,-0.796630859375,-0.009521484375,0.572265625,1760515154.322674
-0.3170731707317073,-0.31219512195121957,0.14634146341463408,-0.7979736328125,-0.009521484375,0.57763671875,1760515154.4336412
-0.19512195121951217,0.23658536585365855,0.02439024390243894,-0.7999267578125,-0.0096435546875,0.5628662109375,1760515154.550758
-0.25609756097560976,1.5170731707317073,0.02439024390243894,-0.8011474609375,-0.00830078125,0.5743408203125,1760515154.6628072
0.17073170731707324,1.578048780487805,-1.378048780487805,-0.80126953125,-0.0081787109375,0.572509765625,1760515154.77181
-0.5609756097560976,0.41951219512195126,0.7560975609756098,-0.7950439453125,-0.010009765625,0.5799560546875,1760515154.882646
0.4146341463414635,0.9073170731707317,-1.378048780487805,-0.8021240234375,-0.0106201171875,0.569580078125,1760515154.995236
-0.3170731707317073,-0.7390243902439025,0.08536585365853651,-0.7977294921875,-0.0093994140625,0.58056640625,1760515155.1068249
-1.353658536585366,-0.6170731707317074,0.8170731707317073,-0.8021240234375,-0.010009765625,0.57861328125,1760515155.216536
1.9390243902439026,0.3585365853658537,-1.4390243902439026,-0.799560546875,-0.0096435546875,0.572265625,1760515155.326794
-0.3170731707317073,1.0902439024390245,0.08536585365853651,-0.8052978515625,-0.012451171875,0.5699462890625,1760515155.4390192
-0.3780487804878049,-0.4951219512195123,0.08536585365853651,-0.8023681640625,-0.010986328125,0.57421875,1760515155.5485606
-0.3780487804878049,1.3951219512195123,0.08536585365853651,-0.80224609375,-0.0111083984375,0.5751953125,1760515155.6609857
-0.25609756097560976,15.297560975609757,0.14634146341463408,-0.7987060546875,-0.0106201171875,0.5706787109375,1760515155.7702854
0.35365853658536595,0.6024390243902439,-0.2804878048780489,-0.80126953125,-0.009765625,0.5740966796875,1760515155.8798878
-0.3170731707317073,-0.4341463414634147,0.08536585365853651,-0.7982177734375,-0.0111083984375,0.5758056640625,1760515155.990556
-0.3170731707317073,0.5414634146341464,0.08536585365853651,-0.8011474609375,-0.0081787109375,0.5755615234375,1760515156.1025465
-0.3780487804878049,-0.4341463414634147,0.14634146341463408,-0.8001708984375,-0.009033203125,0.5748291015625,1760515156.2124858
-0.25609756097560976,0.05365853658536585,0.08536585365853651,-0.802001953125,-0.0068359375,0.5748291015625,1760515156.3233373
-0.25609756097560976,0.3585365853658537,0.14634146341463408,-0.8013916015625,-0.009765625,0.5743408203125,1760515156.43551
-0.25609756097560976,0.29756097560975614,0.14634146341463408,-0.7958984375,-0.008056640625,0.575439453125,1760515156.545623
-0.3170731707317073,1.151219512195122,0.08536585365853651,-0.8028564453125,-0.010498046875,0.5731201171875,1760515156.655436
-0.3170731707317073,-0.9829268292682928,0.14634146341463408,-0.798828125,-0.009521484375,0.5711669921875,1760515156.7651522
-0.3170731707317073,0.7853658536585366,0.08536585365853651,-0.8033447265625,-0.01171875,0.5723876953125,1760515156.8849766
-0.3780487804878049,0.29756097560975614,0.14634146341463408,-0.8017578125,-0.0113525390625,0.569091796875,1760515156.9987051
-0.25609756097560976,-0.7390243902439025,0.02439024390243894,-0.7978515625,-0.00927734375,0.5732421875,1760515157.111389
-0.19512195121951217,1.9439024390243904,-0.036585365853658625,-0.801025390625,-0.0101318359375,0.5693359375,1760515157.2269692
-0.3170731707317073,-0.25121951219512195,0.08536585365853651,-0.8013916015625,-0.009521484375,0.572021484375,1760515157.339951
-0.3170731707317073,-0.5560975609756099,0.14634146341463408,-0.8018798828125,-0.0107421875,0.564208984375,1760515157.449898
-0.43902439024390244,-2.751219512195122,1.3658536585365855,-0.8023681640625,-0.00830078125,0.5758056640625,1760515157.5595596
-0.3170731707317073,2.6756097560975616,0.02439024390243894,-0.7998046875,-0.01220703125,0.572998046875,1760515157.6778855
9.865853658536587,-5.434146341463415,-6.682926829268293,-0.8038330078125,-0.010986328125,0.573974609375,1760515157.790102
-0.25609756097560976,0.8463414634146341,0.08536585365853651,-0.805419921875,-0.011962890625,0.571533203125,1760515157.9029543
-0.25609756097560976,-0.12926829268292686,0.08536585365853651,-0.8016357421875,-0.0078125,0.57177734375,1760515158.012473
-0.3780487804878049,-0.31219512195121957,0.14634146341463408,-0.8017578125,-0.0113525390625,0.5709228515625,1760515158.1251893
-0.25609756097560976,2.3707317073170735,0.08536585365853651,-0.801025390625,-0.0074462890625,0.583984375,1760515158.2387488
-0.25609756097560976,-0.8000000000000002,0.08536585365853651,-0.8056640625,-0.0091552734375,0.5693359375,1760515158.3483188
-0.3170731707317073,0.4804878048780488,0.08536585365853651,-0.8089599609375,-0.0086669921875,0.566650390625,1760515158.4597356
0.902439024390244,-10.495121951219513,-0.8902439024390245,-0.804443359375,-0.007080078125,0.555908203125,1760515158.5697494
-0.3170731707317073,-0.5560975609756099,0.14634146341463408,-0.801513671875,-0.01171875,0.580322265625,1760515158.6813946
-3.1219512195121957,0.29756097560975614,2.0365853658536586,-0.7989501953125,-0.009521484375,0.5732421875,1760515158.7954564
-0.3780487804878049,-4.336585365853659,0.14634146341463408,-0.796875,-0.0103759765625,0.5804443359375,1760515158.9153605
-0.43902439024390244,0.6634146341463415,0.20731707317073164,-0.79931640625,-0.00830078125,0.5753173828125,1760515159.0243952
-0.3170731707317073,-0.007317073170731715,0.02439024390243894,-0.7974853515625,-0.009521484375,0.57568359375,1760515159.1361215
-0.19512195121951217,0.9073170731707317,-0.036585365853658625,-0.7969970703125,-0.007080078125,0.576171875,1760515159.2490032
0.2317073170731708,-1.1658536585365855,-0.2804878048780489,-0.8001708984375,-0.0069580078125,0.57373046875,1760515159.3582895
-0.3170731707317073,2.2487804878048783,0.14634146341463408,-0.8001708984375,-0.0086669921875,0.572509765625,1760515159.4699428
-1.048780487804878,-0.678048780487805,0.20731707317073164,-0.8033447265625,-0.009521484375,0.5714111328125,1760515159.5795434
3.402439024390244,1.3951219512195123,-2.353658536585366,-0.800537109375,-0.0101318359375,0.5755615234375,1760515159.690241
5.353658536585366,-2.81219512195122,-1.926829268292683,-0.8009033203125,-0.0103759765625,0.578857421875,1760515159.8030217
-0.3780487804878049,-1.531707317073171,1.0,-0.7982177734375,-0.0120849609375,0.5738525390625,1760515159.9126546
-3.5487804878048785,-2.995121951219512,4.048780487804879,-0.79736328125,-0.0067138671875,0.5823974609375,1760515160.0249221
1.3902439024390245,6.7,-1.0731707317073174,-0.7999267578125,-0.006591796875,0.5679931640625,1760515160.1353087
-1.048780487804878,-1.2878048780487807,0.5121951219512195,-0.8017578125,-0.0123291015625,0.576171875,1760515160.24497
-0.9878048780487805,16.02926829268293,-0.21951219512195133,-0.8004150390625,-0.01025390625,0.5675048828125,1760515160.355806
-0.3170731707317073,14.809756097560976,0.6951219512195121,-0.8026123046875,-0.014892578125,0.5704345703125,1760515160.4706929
1.024390243902439,1.3951219512195123,-0.829268292682927,-0.7999267578125,-0.0120849609375,0.5733642578125,1760515160.5825467
2.3658536585365852,2.614634146341464,-1.804878048780488,-0.797607421875,-0.0111083984375,0.5716552734375,1760515160.6934576
-0.19512195121951217,-0.06829268292682929,0.20731707317073164,-0.80029296875,-0.0057373046875,0.576904296875,1760515160.8099341
-0.3170731707317073,0.175609756097561,0.08536585365853651,-0.796630859375,-0.012451171875,0.5767822265625,1760515160.920213
-0.3170731707317073,-1.104878048780488,0.08536585365853651,-0.7998046875,-0.01025390625,0.578857421875,1760515161.0311558
-0.3170731707317073,-0.8000000000000002,0.08536585365853651,-0.7989501953125,-0.0087890625,0.5777587890625,1760515161.141738
-1.4146341463414636,1.2121951219512195,0.8780487804878049,-0.7977294921875,-0.01171875,0.577880859375,1760515161.252067
2.3658536585365852,1.578048780487805,-1.3170731707317076,-0.798583984375,-0.007080078125,0.573486328125,1760515161.3616605
-2.2682926829268295,2.1878048780487807,0.39024390243902435,-0.795654296875,-0.010009765625,0.581787109375,1760515161.473944
-0.6829268292682927,0.5414634146341464,0.8170731707317073,-0.79931640625,-0.0072021484375,0.578857421875,1760515161.5856557
0.10975609756097567,-0.4951219512195123,-0.40243902439024404,-0.796142578125,-0.0096435546875,0.5797119140625,1760515161.6984994
3.097560975609756,2.614634146341464,-2.2926829268292686,-0.7987060546875,-0.0113525390625,0.576416015625,1760515161.8220286
-0.25609756097560976,0.175609756097561,0.08536585365853651,-0.81201171875,-0.0093994140625,0.5791015625,1760515161.934057
3.158536585365854,1.8829268292682928,-2.4756097560975614,-0.798095703125,-0.0089111328125,0.5830078125,1760515162.0432084
-0.7439024390243902,-0.31219512195121957,0.7560975609756098,-0.7999267578125,-0.0098876953125,0.5748291015625,1760515162.1521678
-0.3170731707317073,1.0902439024390245,0.14634146341463408,-0.7998046875,-0.0087890625,0.5755615234375,1760515162.2631328
6.2682926829268295,3.163414634146342,-4.304878048780488,-0.7969970703125,-0.0086669921875,0.5750732421875,1760515162.3721666
-0.3780487804878049,-1.653658536585366,0.14634146341463408,-0.8001708984375,-0.01025390625,0.5791015625,1760515162.4845164
-0.8658536585365854,-0.5560975609756099,0.5121951219512195,-0.7998046875,-0.00830078125,0.5771484375,1760515162.596334
0.5975609756097562,0.175609756097561,-0.5243902439024392,-0.8011474609375,-0.0115966796875,0.575439453125,1760515162.7101626
4.2560975609756095,-1.8975609756097562,-3.085365853658537,-0.799072265625,-0.011474609375,0.5728759765625,1760515162.820076
0.2926829268292684,0.41951219512195126,-0.2804878048780489,-0.7999267578125,-0.0107421875,0.5694580078125,1760515162.929143
-0.3780487804878049,-0.3731707317073171,0.3292682926829268,-0.8009033203125,-0.01025390625,0.573486328125,1760515163.038964
-0.3170731707317073,-0.25121951219512195,0.02439024390243894,-0.797119140625,-0.0091552734375,0.5789794921875,1760515163.1484852
-0.3170731707317073,-14.519512195121953,0.08536585365853651,-0.800048828125,-0.0078125,0.572265625,1760515163.2635481
-0.3780487804878049,1.8219512195121952,-0.3414634146341465,-0.8009033203125,-0.0108642578125,0.57275390625,1760515163.374633
-0.43902439024390244,0.8463414634146341,0.26829268292682923,-0.8004150390625,-0.0093994140625,0.572998046875,1760515163.4869466
-0.3170731707317073,0.6024390243902439,0.08536585365853651,-0.8006591796875,-0.0084228515625,0.57275390625,1760515163.5978844
-0.3170731707317073,-0.007317073170731715,0.26829268292682923,-0.8001708984375,-0.0074462890625,0.5714111328125,1760515163.7105877
-0.3170731707317073,-0.678048780487805,0.14634146341463408,-0.801025390625,-0.0078125,0.5711669921875,1760515163.8230379
-0.6219512195121951,-1.653658536585366,0.8170731707317073,-0.7996826171875,-0.00927734375,0.5738525390625,1760515163.9321437
-0.25609756097560976,0.5414634146341464,0.08536585365853651,-0.7994384765625,-0.0091552734375,0.569091796875,1760515164.0442297
-0.3170731707317073,0.29756097560975614,0.08536585365853651,-0.8023681640625,-0.009765625,0.56884765625,1760515164.1566896
-1.6585365853658538,-0.678048780487805,1.0609756097560976,-0.8018798828125,-0.0103759765625,0.5679931640625,1760515164.2706773
-0.25609756097560976,-0.12926829268292686,0.08536585365853651,-0.8017578125,-0.008544921875,0.5718994140625,1760515164.3812113
0.0487804878048781,-0.5560975609756099,-2.414634146341464,-0.7957763671875,-0.0079345703125,0.57666015625,1760515164.490297
8.585365853658539,1.4560975609756097,-6.073170731707317,-0.8035888671875,-0.01025390625,0.573486328125,1760515164.5998135
-0.19512195121951217,0.05365853658536585,0.02439024390243894,-0.801513671875,-0.0086669921875,0.5751953125,1760515164.7123039
-2.695121951219513,-0.3731707317073171,1.7926829268292683,-0.7989501953125,-0.0081787109375,0.5718994140625,1760515164.8223882
-0.3170731707317073,-0.4341463414634147,0.08536585365853651,-0.8013916015625,-0.012451171875,0.5753173828125,1760515164.9315891
-0.5,-0.31219512195121957,0.08536585365853651,-0.799072265625,-0.0093994140625,0.57421875,1760515165.043907
-0.3170731707317073,15.053658536585367,0.26829268292682923,-0.800537109375,-0.0103759765625,0.5704345703125,1760515165.1547256
-0.25609756097560976,0.9073170731707317,0.02439024390243894,-0.80419921875,-0.0098876953125,0.5712890625,1760515165.2651162
-0.3170731707317073,1.2121951219512195,0.02439024390243894,-0.7991943359375,-0.0086669921875,0.57275390625,1760515165.375309
-0.3170731707317073,-0.9829268292682928,0.08536585365853651,-0.802001953125,-0.010986328125,0.57373046875,1760515165.4876134
2.0,-0.4341463414634147,-1.5609756097560978,-0.8031005859375,-0.0078125,0.57666015625,1760515165.6014054
-0.19512195121951217,1.7609756097560976,0.02439024390243894,-0.8026123046875,-0.01171875,0.571044921875,1760515165.7158027
-0.3170731707317073,-14.153658536585368,0.08536585365853651,-0.802490234375,-0.0101318359375,0.5711669921875,1760515165.8279917
-0.3170731707317073,1.0292682926829269,0.02439024390243894,-0.800537109375,-0.00830078125,0.5767822265625,1760515165.937579
-0.3170731707317073,0.5414634146341464,0.4512195121951219,-0.8009033203125,-0.009033203125,0.5732421875,1760515166.0481355
-0.3170731707317073,2.1878048780487807,0.14634146341463408,-0.8021240234375,-0.0076904296875,0.57373046875,1760515166.1581774
-0.3170731707317073,-0.3731707317073171,0.14634146341463408,-0.8016357421875,-0.0076904296875,0.5750732421875,1760515166.2685156
0.5975609756097562,-21.59268292682927,-0.829268292682927,-0.8543701171875,-0.0020751953125,0.5057373046875,1760515166.3781416
-0.3780487804878049,-6.043902439024391,2.097560975609756,-0.792236328125,-0.0107421875,0.5899658203125,1760515166.4892786
-0.3780487804878049,-1.7756097560975612,0.26829268292682923,-0.79541015625,-0.01171875,0.584228515625,1760515166.6028235
-0.43902439024390244,-0.007317073170731715,0.02439024390243894,-0.7940673828125,-0.0111083984375,0.58349609375,1760515166.7176845
-3.0000000000000004,-1.653658536585366,1.9146341463414636,-0.7919921875,-0.011474609375,0.58447265625,1760515166.8369875
-1.2926829268292683,-0.7390243902439025,1.0,-0.794189453125,-0.01025390625,0.58349609375,1760515166.9468567
-0.19512195121951217,0.7853658536585366,0.02439024390243894,-0.7921142578125,-0.012451171875,0.5792236328125,1760515167.0572526
-1.353658536585366,0.41951219512195126,0.39024390243902435,-0.7943115234375,-0.008056640625,0.5841064453125,1760515167.167138
-0.3170731707317073,0.175609756097561,0.14634146341463408,-0.793701171875,-0.010009765625,0.586181640625,1760515167.2794142
-0.25609756097560976,0.4804878048780488,0.14634146341463408,-0.7960205078125,-0.0108642578125,0.5819091796875,1760515167.3893251
-0.19512195121951217,0.6634146341463415,-0.036585365853658625,-0.798095703125,-0.011474609375,0.57861328125,1760515167.5021892
-0.5609756097560976,0.4804878048780488,0.39024390243902435,-0.7908935546875,-0.010986328125,0.5819091796875,1760515167.6167054
-0.3170731707317073,0.8463414634146341,0.08536585365853651,-0.7933349609375,-0.01025390625,0.5821533203125,1760515167.7270243
-0.3170731707317073,-1.4097560975609758,0.02439024390243894,-0.79296875,-0.0091552734375,0.5863037109375,1760515167.8373063
-0.07317073170731704,3.2243902439024397,-0.15853658536585377,-0.7969970703125,-0.0130615234375,0.578125,1760515167.9479446
-0.25609756097560976,3.407317073170732,0.08536585365853651,-0.8006591796875,-0.00927734375,0.5731201171875,1760515168.059295
-0.3170731707317073,-0.6170731707317074,0.08536585365853651,-0.7947998046875,-0.0135498046875,0.5828857421875,1760515168.1683757
-0.19512195121951217,1.151219512195122,0.08536585365853651,-0.79443359375,-0.01123046875,0.5819091796875,1760515168.2776709
-0.3170731707317073,-1.104878048780488,0.14634146341463408,-0.7940673828125,-0.0108642578125,0.579833984375,1760515168.3914046
-0.3170731707317073,15.663414634146342,0.08536585365853651,-0.7957763671875,-0.0123291015625,0.5792236328125,1760515168.5008128
-0.3170731707317073,0.724390243902439,0.08536585365853651,-0.7967529296875,-0.012939453125,0.5792236328125,1760515168.6118097
-0.19512195121951217,-0.8609756097560977,0.02439024390243894,-0.7926025390625,-0.011962890625,0.5831298828125,1760515168.7219489
0.0487804878048781,0.4804878048780488,-0.5853658536585368,-0.7955322265625,-0.0108642578125,0.58447265625,1760515168.8350532
-1.1707317073170733,-0.9219512195121953,0.573170731707317,-0.7965087890625,-0.010986328125,0.58447265625,1760515168.9487631
-0.3780487804878049,-1.1658536585365855,0.14634146341463408,-0.7947998046875,-0.009765625,0.5838623046875,1760515169.062014
-0.3780487804878049,-0.007317073170731715,0.20731707317073164,-0.7965087890625,-0.0081787109375,0.58056640625,1760515169.1751823
-0.3170731707317073,0.41951219512195126,0.08536585365853651,-0.7958984375,-0.0106201171875,0.58349609375,1760515169.287675
-0.3780487804878049,-0.3731707317073171,0.08536585365853651,-0.7962646484375,-0.0115966796875,0.5814208984375,1760515169.4034472
-0.3170731707317073,1.2121951219512195,0.14634146341463408,-0.7960205078125,-0.009033203125,0.5780029296875,1760515169.5138922
-0.25609756097560976,-0.19024390243902442,0.02439024390243894,-0.793701171875,-0.0096435546875,0.5830078125,1760515169.6270866
-0.3170731707317073,-0.8000000000000002,0.14634146341463408,-0.7950439453125,-0.0072021484375,0.5865478515625,1760515169.7383106
-0.3170731707317073,1.0902439024390245,0.08536585365853651,-0.7950439453125,-0.01171875,0.5849609375,1760515169.8531494
-0.3170731707317073,0.4804878048780488,-0.036585365853658625,-0.794921875,-0.0107421875,0.583740234375,1760515169.9649992
-0.3170731707317073,-0.6170731707317074,0.08536585365853651,-0.7916259765625,-0.0106201171875,0.5927734375,1760515170.0761762
-0.3170731707317073,-1.0439024390243905,0.08536585365853651,-0.7952880859375,-0.013671875,0.5855712890625,1760515170.18541
-0.3170731707317073,0.23658536585365855,0.08536585365853651,-0.794189453125,-0.0103759765625,0.581787109375,1760515170.2948375
-0.3780487804878049,0.05365853658536585,0.08536585365853651,-0.79345703125,-0.010498046875,0.584716796875,1760515170.406788
-0.25609756097560976,-0.06829268292682929,0.02439024390243894,-0.7940673828125,-0.0078125,0.5833740234375,1760515170.5160494
-0.3170731707317073,0.41951219512195126,0.14634146341463408,-0.797607421875,-0.0128173828125,0.58447265625,1760515170.6268537
-0.3170731707317073,-2.446341463414634,0.08536585365853651,-0.793212890625,-0.0079345703125,0.588623046875,1760515170.7380638
-0.25609756097560976,-15.068292682926831,0.08536585365853651,-0.793212890625,-0.0096435546875,0.58349609375,1760515170.8489087
-0.25609756097560976,0.8463414634146341,-0.036585365853658625,-0.7916259765625,-0.010986328125,0.5816650390625,1760515170.9584336
-0.3170731707317073,-0.9219512195121953,0.14634146341463408,-0.789306640625,-0.0089111328125,0.5789794921875,1760515171.068389
-0.3780487804878049,-1.1658536585365855,0.14634146341463408,-0.792724609375,-0.01318359375,0.582763671875,1760515171.1785536
-0.3780487804878049,0.8463414634146341,0.02439024390243894,-0.799072265625,-0.0113525390625,0.5810546875,1760515171.2888749
-0.5,-3.8487804878048784,0.4512195121951219,-0.794189453125,-0.0093994140625,0.5872802734375,1760515171.4005039
-0.5,-1.1658536585365855,0.20731707317073164,-0.791259765625,-0.009521484375,0.5838623046875,1760515171.5131552
-0.25609756097560976,1.0292682926829269,0.20731707317073164,-0.7972412109375,-0.01025390625,0.5775146484375,1760515171.622947
-0.6829268292682927,2.5536585365853663,-0.21951219512195133,-0.7962646484375,-0.00927734375,0.5831298828125,1760515171.736054
-0.25609756097560976,2.1878048780487807,0.08536585365853651,-0.797119140625,-0.01318359375,0.5828857421875,1760515171.8474689
-0.25609756097560976,0.05365853658536585,0.02439024390243894,-0.796630859375,-0.0118408203125,0.5821533203125,1760515171.9567444
-0.3170731707317073,0.05365853658536585,0.08536585365853651,-0.7943115234375,-0.0091552734375,0.582763671875,1760515172.0659122
-0.6829268292682927,-1.1658536585365855,0.39024390243902435,-0.79296875,-0.009765625,0.57666015625,1760515172.1793494
-0.25609756097560976,2.1878048780487807,-0.036585365853658625,-0.796142578125,-0.0113525390625,0.5762939453125,1760515172.2886262
-0.3780487804878049,0.29756097560975614,0.20731707317073164,-0.7923583984375,-0.011474609375,0.578125,1760515172.4016309
-0.43902439024390244,-0.25121951219512195,0.26829268292682923,-0.79541015625,-0.0108642578125,0.5828857421875,1760515172.5142822
-0.43902439024390244,0.9073170731707317,0.14634146341463408,-0.8114013671875,-0.010986328125,0.5787353515625,1760515172.6271958
-0.25609756097560976,-0.4341463414634147,0.08536585365853651,-0.79248046875,-0.0113525390625,0.5838623046875,1760515172.741427
-0.19512195121951217,0.8463414634146341,-0.3414634146341465,-0.7965087890625,-0.0107421875,0.5823974609375,1760515172.852974
-0.25609756097560976,0.6024390243902439,-0.0975609756097562,-0.7994384765625,-0.009521484375,0.58154296875,1760515172.9638774
0.35365853658536595,-0.5560975609756099,-0.4634146341463416,-0.782470703125,-0.01025390625,0.580810546875,1760515173.0745668
-1.1097560975609757,-0.8609756097560977,0.7560975609756098,-0.8101806640625,-0.012939453125,0.5826416015625,1760515173.1862788
-0.5609756097560976,0.05365853658536585,0.3292682926829268,-0.789306640625,-0.0135498046875,0.58740234375,1760515173.2991996
-0.43902439024390244,-0.4341463414634147,0.5121951219512195,-0.7958984375,-0.0111083984375,0.58056640625,1760515173.4126832
-0.3780487804878049,-1.3487804878048781,0.02439024390243894,-0.79248046875,-0.01123046875,0.58203125,1760515173.5245304
-0.5609756097560976,-1.1658536585365855,0.39024390243902435,-0.79248046875,-0.0111083984375,0.583251953125,1760515173.645145
-0.6829268292682927,-0.31219512195121957,0.39024390243902435,-0.7955322265625,-0.0146484375,0.584716796875,1760515173.755205
-0.25609756097560976,-0.4951219512195123,0.02439024390243894,-0.7965087890625,-0.0108642578125,0.5789794921875,1760515173.8663182
-0.5609756097560976,-0.19024390243902442,0.26829268292682923,-0.7928466796875,-0.013671875,0.583251953125,1760515173.9770775
-1.048780487804878,-0.25121951219512195,0.6951219512195121,-0.7938232421875,-0.009765625,0.578125,1760515174.0861669
1.024390243902439,2.431707317073171,-2.414634146341464,-0.79638671875,-0.0125732421875,0.581298828125,1760515174.1951857
-0.19512195121951217,-1.0439024390243905,0.02439024390243894,-0.7955322265625,-0.0107421875,0.5848388671875,1760515174.307005
-0.3170731707317073,-0.3731707317073171,0.14634146341463408,-0.7978515625,-0.0118408203125,0.5821533203125,1760515174.4227204
-0.25609756097560976,0.5414634146341464,0.02439024390243894,-0.7933349609375,-0.0089111328125,0.578857421875,1760515174.5365345
-0.25609756097560976,0.7853658536585366,-0.036585365853658625,-0.795166015625,-0.0113525390625,0.580322265625,1760515174.6465755
-0.19512195121951217,0.05365853658536585,0.14634146341463408,-0.7930908203125,-0.010986328125,0.5826416015625,1760515174.7653859
-0.3780487804878049,1.3341463414634147,0.14634146341463408,-0.7965087890625,-0.0093994140625,0.579345703125,1760515174.8750687
-0.25609756097560976,4.931707317073171,0.08536585365853651,-0.7958984375,-0.011474609375,0.5740966796875,1760515174.9846442
-0.01219512195121947,2.7975609756097564,-0.2804878048780489,-0.7923583984375,-0.009521484375,0.578369140625,1760515175.0936048
-15.865853658536587,1.3951219512195123,0.02439024390243894,-0.792724609375,-0.010498046875,0.5892333984375,1760515175.2028916
-0.13414634146341461,-13.482926829268294,-0.2804878048780489,-0.793212890625,-0.0135498046875,0.5789794921875,1760515175.3170373
-0.6219512195121951,0.9073170731707317,0.3292682926829268,-0.7890625,-0.009033203125,0.579345703125,1760515175.4276838
-0.8048780487804879,0.724390243902439,0.6341463414634146,-0.7957763671875,-0.010009765625,0.5792236328125,1760515175.541336
-0.5609756097560976,-0.3731707317073171,0.3292682926829268,-0.7921142578125,-0.0103759765625,0.5831298828125,1760515175.6538851
-1.2317073170731707,-0.4951219512195123,0.6951219512195121,-0.79248046875,-0.0098876953125,0.5830078125,1760515175.7649965
-0.19512195121951217,2.5536585365853663,-0.036585365853658625,-0.7921142578125,-0.0107421875,0.5811767578125,1760515175.876044
-0.3170731707317073,1.0902439024390245,0.14634146341463408,-0.7952880859375,-0.01171875,0.5794677734375,1760515175.987375
-0.25609756097560976,0.8463414634146341,-0.15853658536585377,-0.79345703125,-0.01171875,0.5804443359375,1760515176.102303
-0.25609756097560976,2.2487804878048783,0.08536585365853651,-0.8111572265625,-0.00927734375,0.583984375,1760515176.2135043
-0.25609756097560976,1.6390243902439026,0.08536585365853651,-0.794921875,-0.0103759765625,0.5855712890625,1760515176.3272152
-0.3170731707317073,1.7000000000000002,0.02439024390243894,-0.796142578125,-0.01318359375,0.5792236328125,1760515176.4387937
-0.3170731707317073,0.5414634146341464,0.02439024390243894,-0.79541015625,-0.010986328125,0.5775146484375,1760515176.5505903
0.4146341463414635,0.05365853658536585,0.20731707317073164,-0.7943115234375,-0.013916015625,0.585205078125,1760515176.6643631
-0.13414634146341461,-0.007317073170731715,0.5121951219512195,-0.79345703125,-0.0113525390625,0.5814208984375,1760515176.777675
-0.6829268292682927,-1.1658536585365855,0.14634146341463408,-0.797119140625,-0.012451171875,0.580810546875,1760515176.89219
-0.6829268292682927,0.05365853658536585,0.39024390243902435,-0.7952880859375,-0.0118408203125,0.58154296875,1760515177.0036173
-1.353658536585366,-1.5926829268292686,0.9390243902439024,-0.7952880859375,-0.0115966796875,0.5806884765625,1760515177.1132634
-0.25609756097560976,3.834146341463415,-0.036585365853658625,-0.796630859375,-0.0115966796875,0.57568359375,1760515177.22316
-0.3170731707317073,1.3341463414634147,-0.0975609756097562,-0.79150390625,-0.010498046875,0.583251953125,1760515177.332572
-0.3170731707317073,0.23658536585365855,0.08536585365853651,-0.79638671875,-0.0126953125,0.583984375,1760515177.4422143
-0.25609756097560976,1.5170731707317073,0.02439024390243894,-0.795166015625,-0.0113525390625,0.5782470703125,1760515177.5525181
-0.3780487804878049,-0.678048780487805,0.08536585365853651,-0.7969970703125,-0.010498046875,0.5819091796875,1760515177.662768
-0.3170731707317073,-2.5073170731707317,0.08536585365853651,-0.790283203125,-0.0135498046875,0.5880126953125,1760515177.772492
-0.25609756097560976,-0.19024390243902442,-0.036585365853658625,-0.7939453125,-0.0120849609375,0.582275390625,1760515177.8831797
-0.25609756097560976,0.41951219512195126,0.14634146341463408,-0.7955322265625,-0.009521484375,0.5814208984375,1760515177.9940312
-0.25609756097560976,-0.9219512195121953,-0.036585365853658625,-0.7938232421875,-0.0108642578125,0.58349609375,1760515178.1055555
-0.43902439024390244,-3.178048780487805,0.26829268292682923,-0.793701171875,-0.009033203125,0.588623046875,1760515178.2155333
-0.25609756097560976,-0.31219512195121957,0.14634146341463408,-0.7935791015625,-0.0076904296875,0.5823974609375,1760515178.3245974
-0.9878048780487805,-1.0439024390243905,0.39024390243902435,-0.794189453125,-0.0096435546875,0.5826416015625,1760515178.4367678
-0.13414634146341461,0.23658536585365855,-0.2804878048780489,-0.798828125,-0.0113525390625,0.579833984375,1760515178.5460653
-0.25609756097560976,0.05365853658536585,0.08536585365853651,-0.7930908203125,-0.0113525390625,0.5845947265625,1760515178.6552525
-0.13414634146341461,-0.007317073170731715,0.02439024390243894,-0.795166015625,-0.0096435546875,0.5848388671875,1760515178.7647443
-0.7439024390243902,-0.3731707317073171,0.39024390243902435,-0.7938232421875,-0.00830078125,0.5831298828125,1760515178.8755994
-0.43902439024390244,-1.1658536585365855,0.20731707317073164,-0.793701171875,-0.014404296875,0.581787109375,1760515178.9886112
-0.3170731707317073,-1.2268292682926831,0.14634146341463408,-0.79638671875,-0.009521484375,0.5828857421875,1760515179.0988302
-0.3780487804878049,0.3585365853658537,0.08536585365853651,-0.794189453125,-0.0113525390625,0.5826416015625,1760515179.2085056
-0.3170731707317073,-0.31219512195121957,0.14634146341463408,-0.79541015625,-0.012451171875,0.5819091796875,1760515179.3192506
-0.3170731707317073,0.23658536585365855,0.08536585365853651,-0.7957763671875,-0.0076904296875,0.5810546875,1760515179.4346838
-0.19512195121951217,0.5414634146341464,-0.21951219512195133,-0.796875,-0.011474609375,0.5830078125,1760515179.5443244
-0.25609756097560976,1.273170731707317,0.02439024390243894,-0.79541015625,-0.009765625,0.582275390625,1760515179.6553347
-0.3170731707317073,0.11463414634146342,0.14634146341463408,-0.794921875,-0.0093994140625,0.5830078125,1760515179.7651477
-0.25609756097560976,0.724390243902439,0.08536585365853651,-0.7952880859375,-0.0103759765625,0.57861328125,1760515179.8761823
-0.25609756097560976,2.1268292682926835,-0.036585365853658625,-0.794189453125,-0.013671875,0.5811767578125,1760515179.9870138
-0.25609756097560976,2.614634146341464,-0.036585365853658625,-0.795166015625,-0.0108642578125,0.5811767578125,1760515180.0968199
0.10975609756097567,1.7000000000000002,-0.2804878048780489,-0.7979736328125,-0.009765625,0.576904296875,1760515180.2066667
-0.25609756097560976,0.29756097560975614,-0.036585365853658625,-0.791748046875,-0.01416015625,0.5809326171875,1760515180.3192866
0.6585365853658538,0.3585365853658537,-2.2926829268292686,-0.79443359375,-0.0093994140625,0.58251953125,1760515180.4312153
-0.8658536585365854,-0.6170731707317074,0.573170731707317,-0.7930908203125,-0.0089111328125,0.581298828125,1760515180.5412295
-2.1463414634146347,-0.9829268292682928,1.4268292682926829,-0.7960205078125,-0.0084228515625,0.5811767578125,1760515180.6517377
-0.3170731707317073,0.4804878048780488,0.14634146341463408,-0.79736328125,-0.0113525390625,0.5804443359375,1760515180.7633035
-0.3170731707317073,0.11463414634146342,0.08536585365853651,-0.792236328125,-0.0130615234375,0.5810546875,1760515180.8733306
-0.3170731707317073,0.724390243902439,0.02439024390243894,-0.794189453125,-0.0106201171875,0.578857421875,1760515180.9824314
1.5121951219512197,0.6024390243902439,-1.4390243902439026,-0.7940673828125,-0.01171875,0.5814208984375,1760515181.0916421
-1.048780487804878,-0.9219512195121953,0.6341463414634146,-0.7930908203125,-0.008544921875,0.58203125,1760515181.206367
0.17073170731707324,-0.3731707317073171,-0.2804878048780489,-0.7957763671875,-0.0111083984375,0.583740234375,1760515181.3181763
-0.3780487804878049,0.7853658536585366,0.08536585365853651,-0.797119140625,-0.01318359375,0.575439453125,1760515181.4273179
-0.3170731707317073,-0.5560975609756099,0.08536585365853651,-0.791259765625,-0.0091552734375,0.5806884765625,1760515181.5372465
-0.5609756097560976,0.6634146341463415,0.3292682926829268,-0.7923583984375,-0.0096435546875,0.581787109375,1760515181.6525862
-0.3170731707317073,-1.0439024390243905,0.08536585365853651,-0.794921875,-0.0098876953125,0.5821533203125,1760515181.7641854
-0.5,-0.8000000000000002,0.26829268292682923,-0.7974853515625,-0.0106201171875,0.583740234375,1760515181.8733704
0.2317073170731708,2.431707317073171,0.14634146341463408,-0.7952880859375,-0.0120849609375,0.578857421875,1760515181.9871972
-0.3170731707317073,-1.104878048780488,0.14634146341463408,-0.79345703125,-0.0106201171875,0.5838623046875,1760515182.0965297
-0.3170731707317073,-0.8000000000000002,0.14634146341463408,-0.795166015625,-0.0107421875,0.584228515625,1760515182.2073748
-0.3780487804878049,-0.19024390243902442,0.14634146341463408,-0.7965087890625,-0.00927734375,0.58154296875,1760515182.317481
-0.3170731707317073,0.7853658536585366,0.08536585365853651,-0.7967529296875,-0.011962890625,0.5811767578125,1760515182.429972
-0.3170731707317073,-0.8609756097560977,0.20731707317073164,-0.7916259765625,-0.0142822265625,0.58349609375,1760515182.541415
-0.25609756097560976,1.4560975609756097,0.08536585365853651,-0.7938232421875,-0.00927734375,0.5792236328125,1760515182.651366
-1.902439024390244,0.6024390243902439,1.4878048780487805,-0.794677734375,-0.0081787109375,0.5860595703125,1760515182.761951
-0.3170731707317073,-0.8000000000000002,0.14634146341463408,-0.7940673828125,-0.0101318359375,0.5843505859375,1760515182.8711205
-0.3170731707317073,-0.4341463414634147,0.08536585365853651,-0.795654296875,-0.0113525390625,0.586181640625,1760515182.9805636
-0.926829268292683,-0.8609756097560977,0.6341463414634146,-0.795166015625,-0.0108642578125,0.584716796875,1760515183.0899017
-0.3170731707317073,1.151219512195122,0.08536585365853651,-0.79541015625,-0.010986328125,0.5792236328125,1760515183.2006307
-0.3780487804878049,-1.8975609756097562,0.14634146341463408,-0.79248046875,-0.0135498046875,0.586669921875,1760515183.3124712
-0.3780487804878049,0.23658536585365855,0.08536585365853651,-0.7906494140625,-0.011962890625,0.5833740234375,1760515183.4215925
-0.25609756097560976,2.2487804878048783,0.02439024390243894,-0.7916259765625,-0.009765625,0.5814208984375,1760515183.5361876
-0.3170731707317073,-0.31219512195121957,0.14634146341463408,-0.792724609375,-0.0098876953125,0.5821533203125,1760515183.6546392
-1.353658536585366,-0.5560975609756099,0.8780487804878049,-0.79296875,-0.01025390625,0.580810546875,1760515183.7661178
-2.2682926829268295,-0.8000000000000002,2.3414634146341466,-0.7938232421875,-0.0087890625,0.5831298828125,1760515183.875137
-0.13414634146341461,-0.3731707317073171,-0.0975609756097562,-0.7921142578125,-0.0106201171875,0.5831298828125,1760515183.9842598
-1.7804878048780488,0.3585365853658537,1.0609756097560976,-0.7960205078125,-0.01220703125,0.579833984375,1760515184.0948834
2.2439024390243905,0.11463414634146342,-1.804878048780488,-0.7943115234375,-0.000244140625,0.5814208984375,1760515184.2054064
-0.3170731707317073,1.0902439024390245,0.14634146341463408,-0.794921875,-0.010498046875,0.5794677734375,1760515184.3147728
-0.01219512195121947,0.5414634146341464,0.20731707317073164,-0.79736328125,-0.0157470703125,0.5792236328125,1760515184.4255724
0.5975609756097562,0.8463414634146341,-1.1951219512195124,-0.79541015625,-0.0093994140625,0.5816650390625,1760515184.5419486
-0.926829268292683,0.05365853658536585,0.573170731707317,-0.7916259765625,-0.0118408203125,0.5816650390625,1760515184.6514883
-0.3170731707317073,-0.25121951219512195,0.26829268292682923,-0.79638671875,-0.010498046875,0.58154296875,1760515184.7611926
-0.3170731707317073,0.175609756097561,0.02439024390243894,-0.7960205078125,-0.010986328125,0.5814208984375,1760515184.8709083
-0.25609756097560976,-0.8000000000000002,0.02439024390243894,-0.79296875,-0.01123046875,0.585205078125,1760515184.9839232
-0.25609756097560976,-0.31219512195121957,0.08536585365853651,-0.793701171875,-0.011962890625,0.5833740234375,1760515185.0964718
-0.3170731707317073,-0.25121951219512195,-0.036585365853658625,-0.792236328125,-0.0089111328125,0.5859375,1760515185.2069695
-0.3170731707317073,-0.12926829268292686,0.08536585365853651,-0.79443359375,-0.013427734375,0.581787109375,1760515185.31863
-0.3780487804878049,0.23658536585365855,0.08536585365853651,-0.7947998046875,-0.0123291015625,0.58203125,1760515185.4283838
-0.3780487804878049,0.6634146341463415,0.26829268292682923,-0.796142578125,-0.0128173828125,0.58349609375,1760515185.538979
-0.3170731707317073,-0.007317073170731715,0.20731707317073164,-0.79541015625,-0.0091552734375,0.582763671875,1760515185.6481087
-0.3170731707317073,0.29756097560975614,0.14634146341463408,-0.79638671875,-0.01123046875,0.5804443359375,1760515185.7577333
-0.3170731707317073,-0.007317073170731715,0.08536585365853651,-0.7926025390625,-0.0118408203125,0.58251953125,1760515185.8669314
0.2926829268292684,2.1268292682926835,-0.40243902439024404,-0.7952880859375,-0.01220703125,0.5777587890625,1760515185.9783907
0.17073170731707324,0.41951219512195126,-0.2804878048780489,-0.7967529296875,-0.0115966796875,0.58203125,1760515186.0900035
-2.207317073170732,-1.2268292682926831,1.3658536585365855,-0.7977294921875,-0.00927734375,0.5819091796875,1760515186.2023036
0.35365853658536595,1.0902439024390245,-0.4634146341463416,-0.794677734375,-0.0096435546875,0.582275390625,1760515186.3134058
-0.5609756097560976,0.41951219512195126,0.14634146341463408,-0.7943115234375,-0.01171875,0.5799560546875,1760515186.425925
-0.25609756097560976,-0.678048780487805,0.02439024390243894,-0.794921875,-0.010498046875,0.587646484375,1760515186.5394907
0.17073170731707324,0.724390243902439,-0.40243902439024404,-0.7965087890625,-0.0137939453125,0.581787109375,1760515186.650809
-0.25609756097560976,-0.9219512195121953,0.02439024390243894,-0.79443359375,-0.0113525390625,0.58251953125,1760515186.7603233
-0.3170731707317073,1.3341463414634147,0.02439024390243894,-0.7958984375,-0.009521484375,0.5833740234375,1760515186.8717322
-0.6219512195121951,-0.06829268292682929,0.3292682926829268,-0.7967529296875,-0.0113525390625,0.5836181640625,1760515186.985023
14.80487804878049,0.5414634146341464,0.573170731707317,-0.7926025390625,-0.0089111328125,0.57861328125,1760515187.094049
0.2926829268292684,2.065853658536586,0.39024390243902435,-0.79443359375,-0.0113525390625,0.580810546875,1760515187.2055302
-1.048780487804878,-0.7390243902439025,-14.487804878048781,-0.7952880859375,-0.0107421875,0.585693359375,1760515187.316023
0.2317073170731708,0.29756097560975614,-0.4634146341463416,-0.7965087890625,-0.0118408203125,0.5792236328125,1760515187.426717
-1.2926829268292683,0.05365853658536585,0.9390243902439024,-0.7825927734375,-0.0123291015625,0.58447265625,1760515187.537339
-2.51219512195122,-0.9219512195121953,1.548780487804878,-0.7945556640625,-0.011962890625,0.581298828125,1760515187.6468198
-0.19512195121951217,-0.19024390243902442,-0.0975609756097562,-0.7938232421875,-0.0101318359375,0.586669921875,1760515187.7562609
-0.43902439024390244,-0.8609756097560977,0.14634146341463408,-0.7967529296875,-0.011474609375,0.5849609375,1760515187.8653188
0.17073170731707324,0.8463414634146341,-0.3414634146341465,-0.7947998046875,-0.0103759765625,0.5850830078125,1760515187.974255
-0.3170731707317073,-0.8000000000000002,0.26829268292682923,-0.7939453125,-0.009765625,0.5770263671875,1760515188.0845034
-0.5,-0.007317073170731715,0.6951219512195121,-0.797119140625,-0.0113525390625,0.5814208984375,1760515188.194577
-0.43902439024390244,-0.007317073170731715,0.20731707317073164,-0.81201171875,-0.0086669921875,0.5836181640625,1760515188.3037868
-0.43902439024390244,-0.9829268292682928,0.20731707317073164,-0.7969970703125,-0.0125732421875,0.5867919921875,1760515188.413941
0.0487804878048781,-0.5560975609756099,-0.15853658536585377,-0.7906494140625,-0.0106201171875,0.5859375,1760515188.5236676
-0.43902439024390244,-0.9829268292682928,0.4512195121951219,-0.79052734375,-0.0108642578125,0.5823974609375,1760515188.634846
-0.25609756097560976,-0.31219512195121957,0.08536585365853651,-0.7972412109375,-0.009521484375,0.5810546875,1760515188.7440944
2.3048780487804876,1.7000000000000002,-2.048780487804878,-0.794921875,-0.0118408203125,0.57958984375,1760515188.853095
1.329268292682927,0.9682926829268292,-2.1097560975609757,-0.796142578125,-0.012451171875,0.579833984375,1760515188.9621105
-0.19512195121951217,0.175609756097561,0.14634146341463408,-0.7978515625,-0.0096435546875,0.58056640625,1760515189.071266
0.0487804878048781,0.724390243902439,-0.21951219512195133,-0.7957763671875,-0.0120849609375,0.584228515625,1760515189.1811013
-0.3170731707317073,0.6024390243902439,0.08536585365853651,-0.7935791015625,-0.0107421875,0.5797119140625,1760515189.2902064
-1.048780487804878,-1.0439024390243905,-0.036585365853658625,-0.7938232421875,-0.0125732421875,0.5821533203125,1760515189.3992133
-0.9878048780487805,0.8463414634146341,0.6341463414634146,-0.794921875,-0.01123046875,0.58251953125,1760515189.508171
-0.07317073170731704,-0.06829268292682929,-0.21951219512195133,-0.79541015625,-0.007568359375,0.58544921875,1760515189.617716
-4.829268292682928,-1.2268292682926831,3.3170731707317076,-0.7928466796875,-0.01025390625,0.5823974609375,1760515189.7296686
0.17073170731707324,-0.4951219512195123,-0.5853658536585368,-0.7930908203125,-0.0115966796875,0.57958984375,1760515189.8443336
-0.25609756097560976,-0.5560975609756099,0.14634146341463408,-0.794677734375,-0.0113525390625,0.5799560546875,1760515189.9533138
0.902439024390244,0.7853658536585366,-0.8902439024390245,-0.796142578125,-0.0118408203125,0.583740234375,1760515190.0664382
0.7195121951219513,1.578048780487805,0.14634146341463408,-0.792236328125,-0.00830078125,0.580078125,1760515190.1753757
-0.19512195121951217,0.41951219512195126,-0.0975609756097562,-0.796142578125,-0.0128173828125,0.5777587890625,1760515190.2843387
-0.3170731707317073,0.7853658536585366,0.08536585365853651,-0.795654296875,-0.01318359375,0.581298828125,1760515190.3933382
-2.3902439024390247,15.541463414634148,3.0121951219512195,-0.800537109375,-0.0096435546875,0.577392578125,1760515190.5033834
-0.3780487804878049,0.8463414634146341,0.20731707317073164,-0.7930908203125,-0.009765625,0.5880126953125,1760515190.612632
-0.01219512195121947,0.4804878048780488,-0.15853658536585377,-0.7958984375,-0.00927734375,0.5828857421875,1760515190.721811
2.182926829268293,1.7609756097560976,-0.829268292682927,-0.79736328125,-0.0108642578125,0.573974609375,1760515190.8310912
-0.3780487804878049,1.0902439024390245,0.14634146341463408,-0.7947998046875,-0.0126953125,0.5833740234375,1760515190.9401772
-0.6829268292682927,0.11463414634146342,0.4512195121951219,-0.795654296875,-0.0098876953125,0.582763671875,1760515191.049231
4.073170731707317,0.4804878048780488,-3.0243902439024395,-0.7938232421875,-0.01171875,0.5823974609375,1760515191.1593308
-0.9878048780487805,-0.19024390243902442,0.20731707317073164,-0.793212890625,-0.01220703125,0.5821533203125,1760515191.2684944
-0.3170731707317073,0.23658536585365855,0.02439024390243894,-0.7940673828125,-0.0101318359375,0.5828857421875,1760515191.3775268
-0.3170731707317073,-0.4341463414634147,0.08536585365853651,-0.795166015625,-0.0101318359375,0.584228515625,1760515191.4867773
-0.43902439024390244,1.3951219512195123,0.4512195121951219,-0.7945556640625,-0.0096435546875,0.5806884765625,1760515191.5958233
-0.13414634146341461,0.4804878048780488,0.02439024390243894,-0.7947998046875,-0.010986328125,0.5819091796875,1760515191.7048233
-0.07317073170731704,2.9195121951219516,-0.15853658536585377,-0.794921875,-0.010009765625,0.57763671875,1760515191.8138592
-0.6219512195121951,-0.678048780487805,0.20731707317073164,-0.7943115234375,-0.0091552734375,0.583251953125,1760515191.922896
-0.3780487804878049,-0.3731707317073171,0.08536585365853651,-0.794921875,-0.0125732421875,0.582275390625,1760515192.0344915
-0.3780487804878049,0.4804878048780488,0.20731707317073164,-0.793701171875,-0.0103759765625,0.5821533203125,1760515192.1436577
-0.3780487804878049,-0.007317073170731715,-0.21951219512195133,-0.7967529296875,-0.0135498046875,0.5838623046875,1760515192.2526667
-1.2926829268292683,-0.9219512195121953,-13.634146341463415,-0.793701171875,-0.01025390625,0.583984375,1760515192.3625343
-0.07317073170731704,0.9682926829268292,-0.15853658536585377,-0.7962646484375,-0.0107421875,0.577880859375,1760515192.4715376
-0.25609756097560976,0.41951219512195126,0.14634146341463408,-0.7952880859375,-0.0108642578125,0.578857421875,1760515192.581143
-0.3170731707317073,0.724390243902439,0.02439024390243894,-0.79443359375,-0.01123046875,0.5782470703125,1760515192.690658
-0.01219512195121947,0.6024390243902439,-0.15853658536585377,-0.797119140625,-0.0120849609375,0.5799560546875,1760515192.7996159
-0.13414634146341461,0.9682926829268292,-0.036585365853658625,-0.7955322265625,-0.0091552734375,0.580078125,1760515192.9085999
-1.6585365853658538,-1.8975609756097562,0.20731707317073164,-0.794677734375,-0.0098876953125,0.586181640625,1760515193.0176961
1.207317073170732,0.05365853658536585,-1.0121951219512197,-0.7945556640625,-0.00927734375,0.5797119140625,1760515193.12679
-0.25609756097560976,0.05365853658536585,0.08536585365853651,-0.7923583984375,-0.0089111328125,0.5823974609375,1760515193.2357295
-4.2804878048780495,-0.8000000000000002,3.073170731707317,-0.7945556640625,-0.01123046875,0.5841064453125,1760515193.3505974
-0.13414634146341461,0.23658536585365855,0.02439024390243894,-0.794921875,-0.011962890625,0.582763671875,1760515193.4595847
-0.01219512195121947,0.41951219512195126,0.14634146341463408,-0.796630859375,-0.0123291015625,0.5804443359375,1760515193.5688372
0.0487804878048781,0.5414634146341464,-0.15853658536585377,-0.7952880859375,-0.00732421875,0.5816650390625,1760515193.6780887
-0.3780487804878049,0.8463414634146341,0.20731707317073164,-0.794677734375,-0.0128173828125,0.583740234375,1760515193.7873552
-0.3170731707317073,1.5170731707317073,0.02439024390243894,-0.7958984375,-0.011474609375,0.576904296875,1760515193.8976243
-0.3170731707317073,1.578048780487805,0.08536585365853651,-0.7939453125,-0.01025390625,0.584716796875,1760515194.0074885
0.35365853658536595,0.23658536585365855,-0.3414634146341465,-0.7947998046875,-0.0103759765625,0.5831298828125,1760515194.1164258
-0.3780487804878049,0.724390243902439,0.26829268292682923,-0.7952880859375,-0.0111083984375,0.5794677734375,1760515194.225565
-0.3780487804878049,0.9073170731707317,0.08536585365853651,-0.7967529296875,-0.01171875,0.577880859375,1760515194.3387105
-1.5975609756097562,1.6390243902439026,0.5121951219512195,-0.7945556640625,-0.010498046875,0.58203125,1760515194.4478524
-0.3170731707317073,-1.104878048780488,0.20731707317073164,-0.796630859375,-0.01318359375,0.5811767578125,1760515194.5616844
-0.19512195121951217,-0.19024390243902442,0.02439024390243894,-0.79345703125,-0.010009765625,0.5784912109375,1760515194.6715937
-0.3170731707317073,1.0292682926829269,0.14634146341463408,-0.8114013671875,-0.0107421875,0.5821533203125,1760515194.7806444
-0.3170731707317073,-0.12926829268292686,0.08536585365853651,-0.7960205078125,-0.00830078125,0.5841064453125,1760515194.8896258
-0.3170731707317073,0.3585365853658537,0.08536585365853651,-0.79443359375,-0.0098876953125,0.5799560546875,1760515194.998787
-0.3170731707317073,-0.8609756097560977,0.14634146341463408,-0.792724609375,-0.0093994140625,0.5816650390625,1760515195.1078417
-0.01219512195121947,1.0902439024390245,-0.15853658536585377,-0.7926025390625,-0.0111083984375,0.5821533203125,1760515195.218796
-1.5365853658536586,0.23658536585365855,0.9390243902439024,-0.7996826171875,-0.010986328125,0.5809326171875,1760515195.3281603
-0.9878048780487805,-1.104878048780488,0.3292682926829268,-0.7957763671875,-0.0128173828125,0.5836181640625,1760515195.437123
-0.13414634146341461,1.0902439024390245,-0.0975609756097562,-0.7947998046875,-0.0098876953125,0.582763671875,1760515195.5461807
-0.3780487804878049,-2.9341463414634146,0.3292682926829268,-0.7935791015625,-0.010986328125,0.580810546875,1760515195.655161
-0.25609756097560976,0.23658536585365855,0.14634146341463408,-0.7950439453125,-0.0101318359375,0.582763671875,1760515195.765069
-0.3780487804878049,-1.3487804878048781,0.02439024390243894,-0.796142578125,-0.0089111328125,0.5850830078125,1760515195.8787801
-0.25609756097560976,-0.678048780487805,0.14634146341463408,-0.7923583984375,-0.010009765625,0.5823974609375,1760515195.9880774
-0.19512195121951217,0.175609756097561,-0.0975609756097562,-0.7906494140625,-0.0113525390625,0.58203125,1760515196.0975435
-0.19512195121951217,0.41951219512195126,0.02439024390243894,-0.7933349609375,-0.009521484375,0.5833740234375,1760515196.207158
-0.3170731707317073,1.3341463414634147,0.20731707317073164,-0.79150390625,-0.013427734375,0.5810546875,1760515196.3165102
0.10975609756097567,0.6024390243902439,-0.2804878048780489,-0.7926025390625,-0.0142822265625,0.581298828125,1760515196.426391
-0.25609756097560976,-0.9219512195121953,0.08536585365853651,-0.791259765625,-0.0106201171875,0.5821533203125,1760515196.5357819
-0.5609756097560976,-0.5560975609756099,0.39024390243902435,-0.7908935546875,-0.00830078125,0.5830078125,1760515196.645902
-0.3170731707317073,0.9073170731707317,0.08536585365853651,-0.7960205078125,-0.0106201171875,0.582275390625,1760515196.7551045
-0.7439024390243902,-0.9829268292682928,0.4512195121951219,-0.7958984375,-0.0089111328125,0.5799560546875,1760515196.8650544
-0.25609756097560976,-1.0439024390243905,0.3292682926829268,-0.7947998046875,-0.012451171875,0.582763671875,1760515196.9794648
1.4512195121951221,0.3585365853658537,-1.378048780487805,-0.79541015625,-0.0123291015625,0.5826416015625,1760515197.0900018
-1.475609756097561,0.4804878048780488,1.9146341463414636,-0.7939453125,-0.01416015625,0.58203125,1760515197.2026873
-0.25609756097560976,1.7000000000000002,0.02439024390243894,-0.7977294921875,-0.0126953125,0.5780029296875,1760515197.3119917
0.8414634146341464,1.3951219512195123,-0.7073170731707319,-0.7938232421875,-0.0128173828125,0.5811767578125,1760515197.4210742
-0.25609756097560976,0.05365853658536585,0.08536585365853651,-0.7943115234375,-0.0111083984375,0.583984375,1760515197.5334268
-1.2926829268292683,0.175609756097561,1.975609756097561,-0.794189453125,-0.0126953125,0.5814208984375,1760515197.6446292
-0.07317073170731704,0.11463414634146342,-0.15853658536585377,-0.7918701171875,-0.012451171875,0.5830078125,1760515197.7578986
-0.43902439024390244,0.05365853658536585,0.3292682926829268,-0.7945556640625,-0.010009765625,0.5821533203125,1760515197.8685296
-0.7439024390243902,0.41951219512195126,0.26829268292682923,-0.794921875,-0.0074462890625,0.577392578125,1760515197.9797354
-0.3170731707317073,-0.5560975609756099,0.20731707317073164,-0.7933349609375,-0.01025390625,0.5836181640625,1760515198.0945237
-0.43902439024390244,-2.629268292682927,0.20731707317073164,-0.7933349609375,-0.0140380859375,0.5865478515625,1760515198.208865
-0.3170731707317073,1.0902439024390245,0.14634146341463408,-0.796630859375,-0.010986328125,0.5828857421875,1760515198.3180149
-0.19512195121951217,0.5414634146341464,0.08536585365853651,-0.7935791015625,-0.01025390625,0.5780029296875,1760515198.4296196
-0.5,-0.06829268292682929,0.26829268292682923,-0.79541015625,-0.0093994140625,0.5789794921875,1760515198.5419457
-0.3170731707317073,1.0902439024390245,0.08536585365853651,-0.79541015625,-0.0091552734375,0.5806884765625,1760515198.651536
-0.19512195121951217,0.23658536585365855,-0.15853658536585377,-0.7933349609375,-0.0106201171875,0.5831298828125,1760515198.7606075
-0.19512195121951217,0.175609756097561,0.02439024390243894,-0.808837890625,-0.0118408203125,0.5823974609375,1760515198.872717
-2.085365853658537,-1.4097560975609758,1.9146341463414636,-0.796630859375,-0.012451171875,0.5821533203125,1760515198.9832811
0.0487804878048781,1.2121951219512195,-0.21951219512195133,-0.7952880859375,-0.008544921875,0.5845947265625,1760515199.0939171
-0.5609756097560976,-0.19024390243902442,0.26829268292682923,-0.7940673828125,-0.0101318359375,0.5830078125,1760515199.2040448
-0.13414634146341461,1.6390243902439026,-0.0975609756097562,-0.79541015625,-0.0081787109375,0.5780029296875,1760515199.3131049
-1.048780487804878,0.05365853658536585,-0.15853658536585377,-0.7943115234375,-0.0108642578125,0.5810546875,1760515199.4226506
-0.25609756097560976,0.6634146341463415,0.08536585365853651,-0.79248046875,-0.009521484375,0.5814208984375,1760515199.5321748
-0.3780487804878049,-1.104878048780488,0.20731707317073164,-0.79443359375,-0.010986328125,0.5792236328125,1760515199.6440883
-0.5609756097560976,-0.8000000000000002,0.3292682926829268,-0.795166015625,-0.0101318359375,0.5830078125,1760515199.7569494
17.121951219512198,0.175609756097561,-11.560975609756099,-0.8807373046875,-0.1080322265625,0.5030517578125,1760515199.86668
-1.8414634146341464,-0.8609756097560977,1.1219512195121952,-0.8009033203125,-0.0262451171875,0.578369140625,1760515199.9787073
-0.3170731707317073,1.8829268292682928,0.20731707317073164,-0.7998046875,-0.011962890625,0.56494140625,1760515200.0891068
-0.3170731707317073,-2.81219512195122,0.20731707317073164,-0.8018798828125,-0.013427734375,0.57470703125,1760515200.2000518
-0.3170731707317073,-10.739024390243904,-1.1341463414634148,-0.7962646484375,-0.0089111328125,0.5804443359375,1760515200.3116012
-33.304878048780495,-9.885365853658538,11.731707317073171,-0.818115234375,-0.041259765625,0.570068359375,1760515200.421224
4.2560975609756095,23.651219512195123,-26.682926829268297,-0.7774658203125,-0.1180419921875,0.6483154296875,1760515200.5320568
51.57317073170732,-24.824390243902442,46.609756097560975,-0.6817626953125,-0.010498046875,0.5721435546875,1760515200.644159
-0.07317073170731704,-20.8,-22.84146341463415,-0.8365478515625,0.044677734375,0.6796875,1760515200.753162
-4.219512195121951,-7.32439024390244,15.939024390243903,-0.650390625,0.0635986328125,0.609130859375,1760515200.8638568
-12.02439024390244,-4.82439024390244,8.74390243902439,-0.7486572265625,-0.0516357421875,0.69677734375,1760515200.9744673
42.1219512195122,-19.763414634146343,14.29268292682927,-0.737548828125,0.1353759765625,0.6917724609375,1760515201.085726
12.670731707317074,-41.22682926829269,14.53658536585366,-0.6165771484375,0.113525390625,0.686279296875,1760515201.1986976
-103.3658536585366,-47.32439024390244,-37.71951219512196,-0.66650390625,0.1002197265625,0.8717041015625,1760515201.3103445
-15.439024390243903,-24.09268292682927,18.195121951219512,-0.535888671875,-0.0528564453125,0.85009765625,1760515201.4209952
66.39024390243902,-23.3,50.93902439024391,-0.4390869140625,-0.0947265625,0.7259521484375,1760515201.5314162
-97.81707317073172,48.34634146341464,29.04878048780488,-0.447021484375,-0.0985107421875,0.58349609375,1760515201.6474342
9.439024390243905,-29.946341463414637,-30.09756097560976,-0.4683837890625,0.2913818359375,0.69140625,1760515201.757928
-29.34146341463415,-25.678048780487806,-27.719512195121954,-0.6358642578125,0.120849609375,0.906982421875,1760515201.8683197
-15.865853658536587,7.614634146341464,22.70731707317073,-0.5150146484375,0.1090087890625,0.8599853515625,1760515201.9877965
24.25609756097561,2.6756097560975616,36.24390243902439,-0.693115234375,-0.1199951171875,1.0,1760515202.106627
-1.6585365853658538,2.6756097560975616,-15.036585365853659,-0.542236328125,0.009765625,0.7967529296875,1760515202.2167542
-12.573170731707318,6.7,0.39024390243902435,-0.5845947265625,-0.0306396484375,0.8431396484375,1760515202.3323278
8.03658536585366,4.748780487804878,-1.926829268292683,-0.57470703125,0.0589599609375,0.802001953125,1760515202.4470828
-20.98780487804878,7.3707317073170735,-10.036585365853659,-0.5789794921875,-0.04248046875,0.77734375,1760515202.5570092
-12.695121951219512,14.870731707317074,11.975609756097562,-0.5882568359375,-0.077880859375,0.8056640625,1760515202.6670685
8.463414634146343,-1.7146341463414636,-1.1341463414634148,-0.605224609375,0.0213623046875,0.7965087890625,1760515202.7791538
8.463414634146343,-6.531707317073171,10.02439024390244,-0.5938720703125,-0.0120849609375,0.795654296875,1760515202.8897476
3.097560975609756,-0.678048780487805,0.14634146341463408,-0.593017578125,-0.026123046875,0.798583984375,1760515202.9988797
2.731707317073171,0.3585365853658537,1.4878048780487805,-0.576904296875,-0.0115966796875,0.792236328125,1760515203.1081235
-2.3902439024390247,2.431707317073171,-0.5853658536585368,-0.58251953125,-0.0048828125,0.80615234375,1760515203.2186158
0.17073170731707324,-0.8000000000000002,-2.2926829268292686,-0.586181640625,-0.0069580078125,0.8050537109375,1760515203.3275797
-3.0000000000000004,1.273170731707317,-4.426829268292683,-0.5888671875,-0.0076904296875,0.796875,1760515203.4366696
-2.329268292682927,2.1268292682926835,-1.1951219512195124,-0.5880126953125,0.0020751953125,0.7957763671875,1760515203.5456953
0.2926829268292684,2.0048780487804883,-14.548780487804878,-0.589599609375,-0.0103759765625,0.7998046875,1760515203.655741
2.8536585365853657,-1.7146341463414636,2.280487804878049,-0.584716796875,-0.0042724609375,0.7911376953125,1760515203.7649403
0.902439024390244,-2.1414634146341465,1.3048780487804879,-0.5926513671875,-0.0020751953125,0.796875,1760515203.874604
-1.6585365853658538,2.309756097560976,-1.8658536585365857,-0.5863037109375,-0.01318359375,0.8018798828125,1760515203.9853892
-1.5365853658536586,-0.8000000000000002,-1.25609756097561,-0.5850830078125,-0.0087890625,0.798828125,1760515204.0942771
4.2560975609756095,-4.031707317073171,3.439024390243903,-0.5897216796875,-0.0032958984375,0.7889404296875,1760515204.2041643
-4.341463414634147,3.2243902439024397,-3.1463414634146347,-0.5919189453125,-0.001220703125,0.78955078125,1760515204.3142278
-1.7804878048780488,0.4804878048780488,1.2439024390243902,-0.575439453125,-0.025390625,0.8037109375,1760515204.4239004
0.0487804878048781,-5.921951219512196,1.975609756097561,-0.5919189453125,-0.0076904296875,0.7962646484375,1760515204.5328956
-2.878048780487805,-3.3000000000000003,3.6219512195121952,-0.593505859375,-0.01513671875,0.7943115234375,1760515204.6433518
-3.5487804878048785,1.4560975609756097,-1.25609756097561,-0.567138671875,-0.0106201171875,0.8118896484375,1760515204.7525663
-6.353658536585367,1.3951219512195123,2.4634146341463414,-0.6201171875,-0.0279541015625,0.798583984375,1760515204.861636
-9.951219512195122,0.3585365853658537,-8.02439024390244,-0.58935546875,-0.0574951171875,0.7886962890625,1760515204.9709575
2.182926829268293,2.3707317073170735,5.8170731707317085,-0.592529296875,-0.0518798828125,0.77392578125,1760515205.079919
-3.6707317073170738,12.309756097560976,-2.536585365853659,-0.6142578125,-0.0657958984375,0.7900390625,1760515205.189579
0.8414634146341464,4.565853658536586,1.975609756097561,-0.611572265625,-0.0572509765625,0.7745361328125,1760515205.299836
-0.6219512195121951,-1.653658536585366,-3.695121951219513,-0.6201171875,-0.1085205078125,0.763916015625,1760515205.4096105
3.402439024390244,-1.7146341463414636,2.402439024390244,-0.619384765625,-0.07763671875,0.7701416015625,1760515205.5236933
0.2317073170731708,-1.2878048780487807,2.3414634146341466,-0.61083984375,-0.0845947265625,0.76806640625,1760515205.63305
1.8170731707317076,0.11463414634146342,-1.5000000000000002,-0.6197509765625,-0.0902099609375,0.7724609375,1760515205.7451127
-2.4512195121951224,4.748780487804878,-3.695121951219513,-0.610107421875,-0.1029052734375,0.7818603515625,1760515205.8543684
3.3414634146341466,-3.6658536585365855,3.804878048780488,-0.6260986328125,-0.078369140625,0.7603759765625,1760515205.9667222
-4.219512195121951,3.4682926829268297,-5.219512195121951,-0.6044921875,-0.1175537109375,0.7725830078125,1760515206.0762823
-0.43902439024390244,0.9073170731707317,-1.3170731707317076,-0.6136474609375,-0.0902099609375,0.7716064453125,1760515206.1878126
-0.19512195121951217,-1.0439024390243905,0.4512195121951219,-0.6177978515625,-0.072509765625,0.7784423828125,1760515206.3008509
3.280487804878049,-2.6902439024390246,2.707317073170732,-0.619140625,-0.0692138671875,0.7620849609375,1760515206.4102552
2.182926829268293,-0.678048780487805,2.7682926829268295,-0.6158447265625,-0.066650390625,0.7713623046875,1760515206.5249462
-3.914634146341464,0.4804878048780488,-2.780487804878049,-0.6146240234375,-0.078369140625,0.775390625,1760515206.6366067
-1.475609756097561,0.7853658536585366,-3.5731707317073176,-0.60400390625,-0.1033935546875,0.7783203125,1760515206.7457488
-2.878048780487805,2.431707317073171,-13.817073170731708,-0.6177978515625,-0.0616455078125,0.7728271484375,1760515206.857728
2.0,-2.202439024390244,2.4634146341463414,-0.609619140625,-0.0709228515625,0.772216796875,1760515206.967451
-3.5487804878048785,1.8829268292682928,-1.1341463414634148,-0.623046875,-0.0745849609375,0.7718505859375,1760515207.0788918
3.829268292682927,-3.604878048780488,2.6463414634146343,-0.60986328125,-0.081787109375,0.77880859375,1760515207.1906888
-2.207317073170732,2.2487804878048783,-1.25609756097561,-0.608642578125,-0.0880126953125,0.77783203125,1760515207.302999
-2.695121951219513,1.6390243902439026,-1.5609756097560978,-0.604248046875,-0.0753173828125,0.7706298828125,1760515207.41275
-0.25609756097560976,2.0048780487804883,-0.6463414634146343,-0.61279296875,-0.0838623046875,0.78076171875,1760515207.5222201
-1.5365853658536586,1.7609756097560976,-1.5000000000000002,-0.622314453125,-0.0740966796875,0.7655029296875,1760515207.634832
0.4146341463414635,0.6634146341463415,0.14634146341463408,-0.6075439453125,-0.105712890625,0.7769775390625,1760515207.7467718
3.097560975609756,-1.8975609756097562,3.3170731707317076,-0.61279296875,-0.06982421875,0.767822265625,1760515207.858958
2.0,-1.7756097560975612,1.548780487804878,-0.607177734375,-0.08544921875,0.778564453125,1760515207.9679544
3.8902439024390247,-2.0195121951219512,2.829268292682927,-0.619384765625,-0.0570068359375,0.7694091796875,1760515208.0774796
-2.207317073170732,2.2487804878048783,-1.25609756097561,-0.601806640625,-0.080078125,0.778564453125,1760515208.1870496
-2.3902439024390247,2.1878048780487807,-1.6829268292682928,-0.6185302734375,-0.0623779296875,0.7725830078125,1760515208.2963355
0.7804878048780489,-1.653658536585366,0.14634146341463408,-0.612548828125,-0.0821533203125,0.7669677734375,1760515208.4085755
0.4146341463414635,2.5536585365853663,1.4268292682926829,-0.610595703125,-0.0753173828125,0.779541015625,1760515208.5183377
-3.3658536585365857,1.0902439024390245,-2.231707317073171,-0.6136474609375,-0.0736083984375,0.7763671875,1760515208.629926
-1.2317073170731707,0.3585365853658537,-0.3414634146341465,-0.60986328125,-0.0784912109375,0.774169921875,1760515208.7434592
-0.6219512195121951,-0.4951219512195123,0.26829268292682923,-0.6153564453125,-0.0809326171875,0.77099609375,1760515208.8531735
2.8536585365853657,0.11463414634146342,1.1219512195121952,-0.603271484375,-0.08203125,0.7784423828125,1760515208.964479
-1.2926829268292683,-1.104878048780488,1.4268292682926829,-0.61572265625,-0.0567626953125,0.7730712890625,1760515209.0744514
0.2317073170731708,-0.3731707317073171,-1.3170731707317076,-0.601806640625,-0.080322265625,0.786865234375,1760515209.1868746
0.7804878048780489,0.4804878048780488,1.9146341463414636,-0.6221923828125,-0.0623779296875,0.778076171875,1760515209.2969441
-1.5365853658536586,2.309756097560976,-1.6219512195121955,-0.6048583984375,-0.0831298828125,0.780517578125,1760515209.4110754
-2.51219512195122,1.0292682926829269,-1.804878048780488,-0.6136474609375,-0.071044921875,0.76708984375,1760515209.5222938
1.207317073170732,-4.580487804878049,2.829268292682927,-0.6080322265625,-0.08056640625,0.7752685546875,1760515209.6319785
1.5731707317073174,0.5414634146341464,0.6341463414634146,-0.6134033203125,-0.0657958984375,0.7803955078125,1760515209.7412992
-0.3780487804878049,1.7000000000000002,0.14634146341463408,-0.610595703125,-0.060546875,0.7802734375,1760515209.8530943
-0.5,0.8463414634146341,-0.40243902439024404,-0.6248779296875,-0.0595703125,0.775146484375,1760515209.962823
-2.3902439024390247,1.2121951219512195,-2.2926829268292686,-0.6131591796875,-0.072265625,0.7724609375,1760515210.0746741
0.5365853658536587,0.7853658536585366,0.8780487804878049,-0.608154296875,-0.0576171875,0.7734375,1760515210.184697
-3.1829268292682933,0.8463414634146341,1.0,-0.609619140625,-0.08544921875,0.780517578125,1760515210.2979078
5.536585365853659,-3.7878048780487807,3.073170731707317,-0.6124267578125,-0.0762939453125,0.7745361328125,1760515210.410672
1.0853658536585367,1.8829268292682928,0.8780487804878049,-0.6146240234375,-0.0662841796875,0.774658203125,1760515210.5201714
1.5731707317073174,-0.4341463414634147,1.0609756097560976,-0.6119384765625,-0.06201171875,0.7742919921875,1760515210.629481
-1.5365853658536586,-0.12926829268292686,-0.7682926829268294,-0.6064453125,-0.0692138671875,0.78271484375,1760515210.7418144
-0.926829268292683,0.41951219512195126,-2.1097560975609757,-0.614013671875,-0.0772705078125,0.769775390625,1760515210.8524494
-2.695121951219513,3.5292682926829273,-2.1707317073170733,-0.606201171875,-0.0806884765625,0.7742919921875,1760515210.9659092
0.5365853658536587,-1.0439024390243905,1.3048780487804879,-0.6146240234375,-0.068359375,0.7752685546875,1760515211.0751143
0.10975609756097567,0.175609756097561,-0.829268292682927,-0.6077880859375,-0.0826416015625,0.7657470703125,1760515211.1841378
1.3902439024390245,-0.06829268292682929,1.548780487804878,-0.6163330078125,-0.0706787109375,0.76904296875,1760515211.2938678
3.402439024390244,-1.7756097560975612,2.158536585365854,-0.6112060546875,-0.0684814453125,0.7752685546875,1760515211.4032798
0.8414634146341464,-0.5560975609756099,1.1219512195121952,-0.5960693359375,-0.0784912109375,0.7733154296875,1760515211.5127594
0.10975609756097567,-0.3731707317073171,1.2439024390243902,-0.614013671875,-0.048828125,0.774658203125,1760515211.6228023
-0.8658536585365854,0.23658536585365855,-1.1341463414634148,-0.6119384765625,-0.0701904296875,0.7745361328125,1760515211.7355134
-3.4268292682926833,2.309756097560976,-2.9024390243902443,-0.6097412109375,-0.075439453125,0.769287109375,1760515211.845354
0.2926829268292684,-0.8609756097560977,1.548780487804878,-0.6146240234375,-0.0584716796875,0.77587890625,1760515211.9586208
-4.2804878048780495,2.4926829268292687,-4.121951219512195,-0.6087646484375,-0.088623046875,0.7713623046875,1760515212.0702324
-0.07317073170731704,-0.4341463414634147,0.5121951219512195,-0.6121826171875,-0.076416015625,0.772216796875,1760515212.1800325
-0.5609756097560976,1.0292682926829269,-0.829268292682927,-0.6099853515625,-0.0750732421875,0.776611328125,1760515212.2907536
0.2317073170731708,-0.31219512195121957,1.0609756097560976,-0.620849609375,-0.061279296875,0.769287109375,1760515212.4027112
-0.8658536585365854,0.3585365853658537,0.4512195121951219,-0.61669921875,-0.06005859375,0.773193359375,1760515212.5140157
-1.8414634146341464,0.7853658536585366,-0.7682926829268294,-0.6099853515625,-0.0714111328125,0.774658203125,1760515212.6239717
-1.4146341463414636,0.3585365853658537,-1.1341463414634148,-0.6116943359375,-0.0748291015625,0.7745361328125,1760515212.7355702
-1.048780487804878,1.0292682926829269,-1.804878048780488,-0.606689453125,-0.0841064453125,0.779296875,1760515212.8454263
2.6707317073170733,-1.531707317073171,3.0121951219512195,-0.6104736328125,-0.077880859375,0.77490234375,1760515212.9588509
-2.75609756097561,1.578048780487805,-2.353658536585366,-0.6141357421875,-0.0718994140625,0.772216796875,1760515213.0706403
-1.4146341463414636,2.5536585365853663,-1.378048780487805,-0.62060546875,-0.0872802734375,0.7716064453125,1760515213.1796014
1.3902439024390245,-0.25121951219512195,1.1829268292682926,-0.598876953125,-0.088134765625,0.77783203125,1760515213.2891884
-5.317073170731708,-0.12926829268292686,0.9390243902439024,-0.6339111328125,-0.0662841796875,0.760986328125,1760515213.3997684
-1.6585365853658538,3.5292682926829273,-1.5609756097560978,-0.6180419921875,-0.072509765625,0.768798828125,1760515213.5100124
1.2682926829268295,-0.19024390243902442,1.7926829268292683,-0.607177734375,-0.073486328125,0.7744140625,1760515213.6199992
-0.926829268292683,-0.06829268292682929,0.26829268292682923,-0.6185302734375,-0.0648193359375,0.7735595703125,1760515213.731671
0.35365853658536595,-2.0195121951219512,0.08536585365853651,-0.5966796875,-0.0885009765625,0.7537841796875,1760515213.841621
-0.5,2.065853658536586,1.7317073170731707,-0.6116943359375,-0.0521240234375,0.7567138671875,1760515213.9535496
0.8414634146341464,-0.8000000000000002,2.524390243902439,-0.6102294921875,-0.064208984375,0.7728271484375,1760515214.0637438
-1.8414634146341464,0.05365853658536585,-0.4634146341463416,-0.6097412109375,-0.076416015625,0.77294921875,1760515214.1790211
-3.6707317073170738,0.8463414634146341,1.4268292682926829,-0.6253662109375,-0.0439453125,0.7923583984375,1760515214.2914178
-3.609756097560976,4.321951219512195,-5.890243902439025,-0.6187744140625,-0.0653076171875,0.773681640625,1760515214.4016342
-8.365853658536585,11.760975609756098,-2.780487804878049,-0.6287841796875,-0.0867919921875,0.8016357421875,1760515214.5121446
-4.097560975609756,-5.251219512195123,-5.036585365853659,-0.607666015625,-0.092041015625,0.781982421875,1760515214.6228588
0.902439024390244,0.23658536585365855,2.280487804878049,-0.60498046875,-0.0635986328125,0.7772216796875,1760515214.7331617
0.4146341463414635,2.614634146341464,2.8902439024390247,-0.5970458984375,-0.068359375,0.7786865234375,1760515214.8467793
-0.19512195121951217,2.1268292682926835,2.280487804878049,-0.61083984375,-0.05712890625,0.780029296875,1760515214.9564476
-1.1707317073170733,-0.19024390243902442,-1.0731707317073174,-0.5977783203125,-0.07666015625,0.779296875,1760515215.066727
-1.048780487804878,0.3585365853658537,-0.40243902439024404,-0.6070556640625,-0.0802001953125,0.781494140625,1760515215.1791399
-0.43902439024390244,0.9682926829268292,-0.21951219512195133,-0.603271484375,-0.0750732421875,0.7799072265625,1760515215.2896369
-1.902439024390244,0.23658536585365855,-1.5609756097560978,-0.6055908203125,-0.0792236328125,0.7763671875,1760515215.4028275
-2.085365853658537,0.724390243902439,-1.25609756097561,-0.61083984375,-0.0894775390625,0.781005859375,1760515215.512154
0.35365853658536595,-0.007317073170731715,1.975609756097561,-0.6224365234375,-0.0733642578125,0.77490234375,1760515215.6237445
-5.134146341463415,3.3463414634146345,-2.963414634146342,-0.6190185546875,-0.085205078125,0.779052734375,1760515215.7348893
-4.219512195121951,2.858536585365854,-2.4756097560975614,-0.62353515625,-0.092529296875,0.7647705078125,1760515215.8446343
2.0609756097560976,-1.7146341463414636,1.2439024390243902,-0.612060546875,-0.0955810546875,0.770263671875,1760515215.9560125
-3.1219512195121957,1.7609756097560976,-1.7439024390243905,-0.6142578125,-0.0955810546875,0.768310546875,1760515216.0683274
1.1463414634146343,-0.06829268292682929,0.6341463414634146,-0.61962890625,-0.08935546875,0.76171875,1760515216.17906
2.0609756097560976,-0.8000000000000002,1.7926829268292683,-0.60986328125,-0.0914306640625,0.7655029296875,1760515216.2914393
-0.5,0.175609756097561,1.1829268292682926,-0.618408203125,-0.0838623046875,0.767578125,1760515216.4029212
-1.7195121951219514,0.5414634146341464,-0.0975609756097562,-0.62451171875,-0.075927734375,0.7647705078125,1760515216.5131857
1.5731707317073174,-0.9829268292682928,-1.25609756097561,-0.607666015625,-0.10546875,0.7744140625,1760515216.630798
0.902439024390244,-0.9219512195121953,2.8902439024390247,-0.6214599609375,-0.0809326171875,0.772705078125,1760515216.7401507
0.0487804878048781,4.382926829268293,-5.158536585365853,-0.6065673828125,-0.1448974609375,0.7637939453125,1760515216.8509336
-5.25609756097561,14.443902439024392,-0.40243902439024404,-0.60693359375,-0.1070556640625,0.7733154296875,1760515216.9646163
1.8170731707317076,0.29756097560975614,1.1829268292682926,-0.6248779296875,-0.0771484375,0.765625,1760515217.073699
1.6951219512195124,0.41951219512195126,2.829268292682927,-0.6209716796875,-0.0819091796875,0.773681640625,1760515217.1856513
-0.6219512195121951,-0.9219512195121953,-0.4634146341463416,-0.613037109375,-0.092529296875,0.770751953125,1760515217.2953146
-2.2682926829268295,2.1878048780487807,-1.7439024390243905,-0.6253662109375,-0.107666015625,0.761474609375,1760515217.4066925
-3.853658536585366,3.5292682926829273,-2.9024390243902443,-0.6051025390625,-0.1070556640625,0.7611083984375,1760515217.5163212
-0.6219512195121951,0.29756097560975614,0.39024390243902435,-0.621826171875,-0.08740234375,0.76708984375,1760515217.6268451
3.097560975609756,-4.641463414634147,4.7804878048780495,-0.62890625,-0.0640869140625,0.7633056640625,1760515217.737519
-2.1463414634146347,1.9439024390243904,-0.3414634146341465,-0.6201171875,-0.092529296875,0.780029296875,1760515217.8510184
-1.1097560975609757,1.0902439024390245,-0.829268292682927,-0.61962890625,-0.080322265625,0.763916015625,1760515217.961493
-0.07317073170731704,-1.1658536585365855,0.02439024390243894,-0.6141357421875,-0.1044921875,0.7672119140625,1760515218.0721107
-0.6829268292682927,1.3341463414634147,0.20731707317073164,-0.6265869140625,-0.0855712890625,0.7508544921875,1760515218.1820369
1.5731707317073174,0.23658536585365855,4.048780487804879,-0.618896484375,-0.0882568359375,0.768798828125,1760515218.2923021
-1.4146341463414636,0.29756097560975614,-0.6463414634146343,-0.621826171875,-0.095947265625,0.7581787109375,1760515218.4018695
-0.19512195121951217,-1.4097560975609758,0.39024390243902435,-0.6324462890625,-0.09814453125,0.76171875,1760515218.5118203
-0.07317073170731704,1.3951219512195123,-14.426829268292684,-0.6214599609375,-0.0877685546875,0.7579345703125,1760515218.6223438
-0.8048780487804879,-0.9219512195121953,0.8170731707317073,-0.6229248046875,-0.089599609375,0.7607421875,1760515218.732568
0.5975609756097562,-0.4341463414634147,-0.7073170731707319,-0.62060546875,-0.1053466796875,0.75439453125,1760515218.843082
0.47560975609756106,4.443902439024391,-0.2804878048780489,-0.6197509765625,-0.0904541015625,0.7576904296875,1760515218.9533849
-1.1097560975609757,0.41951219512195126,-0.6463414634146343,-0.6221923828125,-0.0997314453125,0.7674560546875,1760515219.0630288
-0.6829268292682927,-0.4951219512195123,0.3292682926829268,-0.621826171875,-0.099609375,0.7611083984375,1760515219.1726322
1.6951219512195124,-1.653658536585366,1.6707317073170733,-0.632080078125,-0.09130859375,0.7545166015625,1760515219.2861586
-0.8048780487804879,2.2487804878048783,-1.3170731707317076,-0.6241455078125,-0.1087646484375,0.76416015625,1760515219.3957005
-0.19512195121951217,-1.5926829268292686,2.524390243902439,-0.6224365234375,-0.0921630859375,0.7630615234375,1760515219.5082002
-1.475609756097561,0.5414634146341464,-2.048780487804878,-0.621337890625,-0.1046142578125,0.7578125,1760515219.6178849
-0.9878048780487805,2.1268292682926835,0.3292682926829268,-0.6265869140625,-0.09814453125,0.769775390625,1760515219.728479
2.0,-0.5560975609756099,2.280487804878049,-0.617919921875,-0.090576171875,0.7615966796875,1760515219.8394709
-1.5365853658536586,-0.31219512195121957,-0.8902439024390245,-0.6202392578125,-0.09423828125,0.7635498046875,1760515219.9496992
-3.487804878048781,-14.702439024390246,-3.0243902439024395,-0.6212158203125,-0.0906982421875,0.75830078125,1760515220.062746
3.097560975609756,-0.06829268292682929,4.048780487804879,-0.6280517578125,-0.0721435546875,0.7645263671875,1760515220.1725802
-3.1829268292682933,0.6634146341463415,-0.5853658536585368,-0.6219482421875,-0.09326171875,0.7738037109375,1760515220.282017
-2.329268292682927,1.5170731707317073,-2.7195121951219514,-0.6204833984375,-0.1087646484375,0.7625732421875,1760515220.3958783
-1.7804878048780488,1.9439024390243904,-1.378048780487805,-0.62744140625,-0.1038818359375,0.7642822265625,1760515220.5129962
2.3658536585365852,-0.7390243902439025,1.9146341463414636,-0.6219482421875,-0.10009765625,0.7608642578125,1760515220.623407
-2.329268292682927,1.8829268292682928,-1.25609756097561,-0.6282958984375,-0.1016845703125,0.7762451171875,1760515220.733494
0.6585365853658538,-2.751219512195122,0.26829268292682923,-0.628173828125,-0.1080322265625,0.75732421875,1760515220.846966
-0.9878048780487805,2.614634146341464,-1.5609756097560978,-0.614990234375,-0.112548828125,0.760009765625,1760515220.9598992
-0.6219512195121951,0.41951219512195126,1.548780487804878,-0.6202392578125,-0.076416015625,0.769287109375,1760515221.0730798
-1.353658536585366,1.2121951219512195,-4.304878048780488,-0.6121826171875,-0.1343994140625,0.7559814453125,1760515221.1830962
1.0853658536585367,-0.4341463414634147,3.073170731707317,-0.637451171875,-0.0928955078125,0.7584228515625,1760515221.2926369
3.8902439024390247,-2.629268292682927,3.9878048780487814,-0.6240234375,-0.102294921875,0.76123046875,1760515221.408309
-4.7682926829268295,0.9073170731707317,-0.829268292682927,-0.6236572265625,-0.0789794921875,0.7684326171875,1760515221.5183127
-1.1707317073170733,0.9073170731707317,-2.8414634146341466,-0.6182861328125,-0.120361328125,0.7584228515625,1760515221.628871
-2.1463414634146347,1.273170731707317,0.20731707317073164,-0.61865234375,-0.094482421875,0.781005859375,1760515221.7407756
-1.5365853658536586,2.431707317073171,-1.1341463414634148,-0.62646484375,-0.1016845703125,0.76611328125,1760515221.851381
0.2317073170731708,2.1268292682926835,-0.7682926829268294,-0.626220703125,-0.1160888671875,0.7613525390625,1760515221.9634736
-1.5365853658536586,14.565853658536586,0.7560975609756098,-0.6220703125,-0.1046142578125,0.7562255859375,1760515222.0751011
0.0487804878048781,-1.0439024390243905,-0.5853658536585368,-0.6319580078125,-0.1131591796875,0.7471923828125,1760515222.1878383
0.2317073170731708,0.3585365853658537,1.853658536585366,-0.61962890625,-0.10986328125,0.7667236328125,1760515222.2979753
-1.1707317073170733,1.4560975609756097,0.26829268292682923,-0.62158203125,-0.0986328125,0.76171875,1760515222.408212
1.3902439024390245,-2.751219512195122,2.7682926829268295,-0.626953125,-0.0997314453125,0.760009765625,1760515222.5230215
1.329268292682927,-15.129268292682928,0.08536585365853651,-0.628662109375,-0.1065673828125,0.756103515625,1760515222.6332285
0.5365853658536587,0.9682926829268292,1.853658536585366,-0.625732421875,-0.0936279296875,0.7557373046875,1760515222.7490416
-0.43902439024390244,-0.8609756097560977,2.951219512195122,-0.62744140625,-0.0789794921875,0.767333984375,1760515222.8601403
-4.097560975609756,3.834146341463415,-6.378048780487805,-0.620849609375,-0.10595703125,0.7554931640625,1760515222.9695349
0.2317073170731708,-0.31219512195121957,-0.21951219512195133,-0.630126953125,-0.1099853515625,0.7515869140625,1760515223.0798209
-0.13414634146341461,1.3341463414634147,-0.0975609756097562,-0.6282958984375,-0.1021728515625,0.75732421875,1760515223.1894133
-0.19512195121951217,-0.19024390243902442,1.2439024390243902,-0.632080078125,-0.0963134765625,0.755859375,1760515223.298561
1.5731707317073174,-2.629268292682927,2.2195121951219514,-0.623046875,-0.106689453125,0.7652587890625,1760515223.408006
-1.1707317073170733,1.7000000000000002,-1.1951219512195124,-0.6353759765625,-0.0989990234375,0.7548828125,1760515223.5169218
0.5975609756097562,1.9439024390243904,0.02439024390243894,-0.6197509765625,-0.12255859375,0.75927734375,1760515223.6260607
-1.1097560975609757,-0.6170731707317074,2.951219512195122,-0.6273193359375,-0.096923828125,0.756103515625,1760515223.7357516
1.4512195121951221,-3.360975609756098,1.7317073170731707,-0.6231689453125,-0.105712890625,0.75634765625,1760515223.845828
-0.8048780487804879,2.1268292682926835,-1.804878048780488,-0.6148681640625,-0.113037109375,0.761962890625,1760515223.9551995
0.5365853658536587,-1.104878048780488,3.0121951219512195,-0.623291015625,-0.100830078125,0.762451171875,1760515224.0642886
-1.048780487804878,-0.31219512195121957,-1.4390243902439026,-0.6304931640625,-0.1158447265625,0.7554931640625,1760515224.1734066
-0.926829268292683,2.065853658536586,-0.6463414634146343,-0.62744140625,-0.102294921875,0.763427734375,1760515224.2834983
1.3902439024390245,-0.5560975609756099,1.7317073170731707,-0.627197265625,-0.0986328125,0.755859375,1760515224.3927052
-1.048780487804878,0.175609756097561,0.4512195121951219,-0.6268310546875,-0.1082763671875,0.75634765625,1760515224.5022821
1.1463414634146343,-1.653658536585366,4.7804878048780495,-0.6285400390625,-0.078369140625,0.755615234375,1760515224.611278
0.0487804878048781,-0.4341463414634147,0.3292682926829268,-0.6246337890625,-0.0965576171875,0.756591796875,1760515224.7203898
-3.0000000000000004,1.151219512195122,-2.414634146341464,-0.6234130859375,-0.1038818359375,0.7589111328125,1760515224.8294826
-0.5,-0.25121951219512195,-3.207317073170732,-0.6207275390625,-0.124755859375,0.7589111328125,1760515224.9387448
-1.048780487804878,1.273170731707317,-1.0121951219512197,-0.6268310546875,-0.093994140625,0.7545166015625,1760515225.0502179
0.9634146341463415,-1.3487804878048781,2.7682926829268295,-0.6304931640625,-0.10205078125,0.76318359375,1760515225.1612356
-2.0243902439024395,1.4560975609756097,-1.926829268292683,-0.6234130859375,-0.1046142578125,0.768310546875,1760515225.2737174
-1.1707317073170733,-0.4951219512195123,1.975609756097561,-0.6236572265625,-0.1112060546875,0.75634765625,1760515225.3849194
2.6097560975609757,0.6024390243902439,1.4878048780487805,-0.6221923828125,-0.13525390625,0.7677001953125,1760515225.495391
0.6585365853658538,-1.7146341463414636,-0.2804878048780489,-0.6158447265625,-0.1124267578125,0.758056640625,1760515225.6063159
-0.19512195121951217,1.2121951219512195,0.573170731707317,-0.63330078125,-0.0986328125,0.7593994140625,1760515225.717231
0.17073170731707324,0.9073170731707317,-1.0731707317073174,-0.6212158203125,-0.1087646484375,0.7647705078125,1760515225.828288
-1.7804878048780488,1.9439024390243904,-2.963414634146342,-0.6185302734375,-0.1220703125,0.753662109375,1760515225.942749
-0.6829268292682927,0.29756097560975614,-0.036585365853658625,-0.6287841796875,-0.1170654296875,0.76123046875,1760515226.052348
0.902439024390244,-0.5560975609756099,2.951219512195122,-0.62353515625,-0.09716796875,0.754638671875,1760515226.1626294
0.2317073170731708,-0.31219512195121957,-1.0121951219512197,-0.6187744140625,-0.1142578125,0.7579345703125,1760515226.2723908
-0.926829268292683,0.9682926829268292,-0.7073170731707319,-0.6268310546875,-0.1014404296875,0.7557373046875,1760515226.3829985
1.0853658536585367,-0.9829268292682928,2.829268292682927,-0.630859375,-0.099609375,0.757568359375,1760515226.4946098
-1.9634146341463419,1.5170731707317073,-2.4756097560975614,-0.626953125,-0.103759765625,0.7586669921875,1760515226.607901
0.2317073170731708,-0.8609756097560977,2.2195121951219514,-0.6402587890625,-0.105712890625,0.757568359375,1760515226.7225034
-1.7195121951219514,2.614634146341464,-3.634146341463415,-0.6259765625,-0.1204833984375,0.7596435546875,1760515226.8340557
0.47560975609756106,-0.6170731707317074,-14.060975609756099,-0.6312255859375,-0.1063232421875,0.7586669921875,1760515226.9468386
-0.6219512195121951,-0.7390243902439025,0.26829268292682923,-0.625,-0.1121826171875,0.7568359375,1760515227.055746
-1.475609756097561,2.1268292682926835,-0.15853658536585377,-0.6246337890625,-0.1141357421875,0.7578125,1760515227.1673472
1.1463414634146343,-0.7390243902439025,2.8902439024390247,-0.627685546875,-0.099853515625,0.7574462890625,1760515227.2789695
0.35365853658536595,0.175609756097561,1.1829268292682926,-0.626708984375,-0.096435546875,0.7554931640625,1760515227.3882246
-0.3780487804878049,1.151219512195122,-0.21951219512195133,-0.6248779296875,-0.1131591796875,0.758056640625,1760515227.4971743
-0.25609756097560976,0.9073170731707317,1.6097560975609757,-0.626708984375,-0.1038818359375,0.756103515625,1760515227.6079216
1.9390243902439026,-1.3487804878048781,3.3170731707317076,-0.628173828125,-0.09130859375,0.7596435546875,1760515227.7192988
-2.634146341463415,2.7365853658536587,-4.304878048780488,-0.6285400390625,-0.1044921875,0.7554931640625,1760515227.8292954
0.7804878048780489,-1.2878048780487807,2.3414634146341466,-0.6246337890625,-0.1068115234375,0.7601318359375,1760515227.938524
-0.8658536585365854,-0.4341463414634147,0.14634146341463408,-0.624267578125,-0.11181640625,0.755126953125,1760515228.0496309
-1.475609756097561,-0.31219512195121957,0.7560975609756098,-0.623046875,-0.1083984375,0.7608642578125,1760515228.1592321
-2.329268292682927,2.1268292682926835,-1.926829268292683,-0.625,-0.106201171875,0.7557373046875,1760515228.2687907
-1.1707317073170733,0.29756097560975614,-0.5243902439024392,-0.630126953125,-0.1026611328125,0.755615234375,1760515228.3787115
-0.926829268292683,1.2121951219512195,-0.3414634146341465,-0.6297607421875,-0.111572265625,0.7587890625,1760515228.488847
0.0487804878048781,0.23658536585365855,0.08536585365853651,-0.6214599609375,-0.1190185546875,0.7591552734375,1760515228.5983658
4.439024390243903,-4.519512195121952,5.75609756097561,-0.62939453125,-0.092041015625,0.7618408203125,1760515228.7121542
0.8414634146341464,2.7365853658536587,-0.6463414634146343,-0.623046875,-0.0885009765625,0.7574462890625,1760515228.8239813
-0.926829268292683,-1.8365853658536588,0.6951219512195121,-0.6319580078125,-0.08447265625,0.7904052734375,1760515228.9334214
-1.4146341463414636,3.2243902439024397,1.7926829268292683,-0.6265869140625,-0.09130859375,0.7520751953125,1760515229.042713
8.402439024390246,-1.653658536585366,0.573170731707317,-0.6209716796875,-0.0975341796875,0.7550048828125,1760515229.1522646
-3.3658536585365857,0.6024390243902439,-2.2926829268292686,-0.61962890625,-0.089599609375,0.780029296875,1760515229.2631252
1.207317073170732,-0.8609756097560977,-2.353658536585366,-0.6292724609375,-0.0909423828125,0.7542724609375,1760515229.3736827
-3.060975609756098,6.578048780487805,-3.207317073170732,-0.6376953125,-0.0355224609375,0.771240234375,1760515229.4833004
-2.634146341463415,-1.4707317073170734,1.2439024390243902,-0.63671875,-0.047607421875,0.774658203125,1760515229.5926354
12.975609756097564,2.431707317073171,2.402439024390244,-0.647705078125,-0.0484619140625,0.76025390625,1760515229.7041345
14.80487804878049,3.834146341463415,-1.804878048780488,-0.629150390625,-0.0914306640625,0.751220703125,1760515229.8138762
-1.8414634146341464,3.590243902439025,-1.7439024390243905,-0.6461181640625,-0.0755615234375,0.746337890625,1760515229.9229982
-0.25609756097560976,0.29756097560975614,1.4878048780487805,-0.645263671875,-0.0928955078125,0.7421875,1760515230.0324154
-0.19512195121951217,3.7731707317073178,2.6463414634146343,-0.6356201171875,-0.102294921875,0.7476806640625,1760515230.1414802
2.7926829268292686,2.6756097560975616,1.2439024390243902,-0.6463623046875,-0.091552734375,0.7393798828125,1760515230.253447
-0.6219512195121951,-0.4951219512195123,2.4634146341463414,-0.6417236328125,-0.0804443359375,0.755859375,1760515230.362832
0.0487804878048781,-2.81219512195122,2.7682926829268295,-0.639892578125,-0.0792236328125,0.74755859375,1760515230.475652
0.8414634146341464,-14.885365853658538,-0.21951219512195133,-0.6383056640625,-0.0911865234375,0.7547607421875,1760515230.5900378
-15.195121951219512,0.05365853658536585,3.5,-0.644775390625,-0.069580078125,0.7431640625,1760515230.7021391
0.2317073170731708,-0.8000000000000002,-1.4390243902439026,-0.639404296875,-0.0887451171875,0.7598876953125,1760515230.8160613
-0.19512195121951217,2.1878048780487807,-1.9878048780487807,-0.6412353515625,-0.1044921875,0.719970703125,1760515230.9253023
-1.5975609756097562,-2.0195121951219512,3.1341463414634148,-0.6302490234375,-0.0908203125,0.746337890625,1760515231.034793
-1.7195121951219514,-0.6170731707317074,-0.3414634146341465,-0.643310546875,-0.082763671875,0.744873046875,1760515231.1439595
0.10975609756097567,0.9073170731707317,0.5121951219512195,-0.6343994140625,-0.1002197265625,0.75146484375,1760515231.253414
-15.682926829268293,1.7609756097560976,1.3658536585365855,-0.6324462890625,-0.10205078125,0.751708984375,1760515231.364759
0.5365853658536587,-0.25121951219512195,1.2439024390243902,-0.640625,-0.0850830078125,0.752197265625,1760515231.4740496
-0.3780487804878049,-0.007317073170731715,-0.3414634146341465,-0.6431884765625,-0.08203125,0.7476806640625,1760515231.5842211
-1.5975609756097562,2.614634146341464,-1.5609756097560978,-0.63623046875,-0.0985107421875,0.7490234375,1760515231.696148
-0.6829268292682927,-0.9219512195121953,0.9390243902439024,-0.6405029296875,-0.0965576171875,0.748291015625,1760515231.8050687
-0.8048780487804879,0.6024390243902439,-0.5853658536585368,-0.64892578125,-0.08203125,0.751708984375,1760515231.9142385
-0.25609756097560976,-0.25121951219512195,0.39024390243902435,-0.6361083984375,-0.108642578125,0.750244140625,1760515232.0235229
1.207317073170732,-0.7390243902439025,1.548780487804878,-0.64208984375,-0.10546875,0.7476806640625,1760515232.13265
-0.7439024390243902,-0.31219512195121957,1.4268292682926829,-0.63671875,-0.1044921875,0.75390625,1760515232.2416084
-0.3170731707317073,-0.4341463414634147,1.1829268292682926,-0.642333984375,-0.082763671875,0.7489013671875,1760515232.3506198
0.0487804878048781,0.8463414634146341,0.3292682926829268,-0.6375732421875,-0.1015625,0.753173828125,1760515232.4608476
-2.634146341463415,2.1878048780487807,0.7560975609756098,-0.6458740234375,-0.0877685546875,0.7486572265625,1760515232.5705247
-0.01219512195121947,-3.421951219512195,3.7439024390243905,-0.62841796875,-0.0899658203125,0.75830078125,1760515232.6795986
2.4878048780487805,-2.81219512195122,5.695121951219513,-0.641357421875,-0.0516357421875,0.7490234375,1760515232.7892582
-1.6585365853658538,0.5414634146341464,-1.1951219512195124,-0.6339111328125,-0.109619140625,0.75537109375,1760515232.899345
0.4146341463414635,1.9439024390243904,4.7804878048780495,-0.63671875,-0.0877685546875,0.73828125,1760515233.0088527
-3.304878048780488,-3.2390243902439027,4.536585365853659,-0.6038818359375,-0.0517578125,0.768798828125,1760515233.1180193
0.7195121951219513,-2.3853658536585365,-1.0731707317073174,-0.638427734375,-0.0843505859375,0.7559814453125,1760515233.2273035
0.2926829268292684,1.6390243902439026,0.6341463414634146,-0.640869140625,-0.0703125,0.7781982421875,1760515233.3369908
5.658536585365854,1.9439024390243904,1.7317073170731707,-0.638427734375,-0.066650390625,0.76953125,1760515233.4491677
-7.573170731707318,11.334146341463414,-2.5975609756097566,-0.6513671875,-0.0677490234375,0.74462890625,1760515233.5592692
-4.7682926829268295,7.492682926829269,-0.5243902439024392,-0.64306640625,-0.0858154296875,0.7486572265625,1760515233.668373
-1.1707317073170733,1.8219512195121952,2.7682926829268295,-0.651123046875,-0.0797119140625,0.751708984375,1760515233.778686
2.3658536585365852,-3.9097560975609764,3.25609756097561,-0.6536865234375,-0.089599609375,0.74658203125,1760515233.8890457
14.621951219512198,-1.8365853658536588,1.0,-0.6519775390625,-0.0533447265625,0.7532958984375,1760515234.0021918
-3.243902439024391,0.175609756097561,-1.5609756097560978,-0.6412353515625,-0.0816650390625,0.74462890625,1760515234.1130495
-1.8414634146341464,-0.678048780487805,3.1341463414634148,-0.6358642578125,-0.057861328125,0.7530517578125,1760515234.2237782
-3.1829268292682933,1.578048780487805,-1.378048780487805,-0.6502685546875,-0.07080078125,0.7520751953125,1760515234.3337305
-5.01219512195122,1.273170731707317,1.853658536585366,-0.6458740234375,-0.058349609375,0.7449951171875,1760515234.4433732
-2.085365853658537,2.3707317073170735,-0.036585365853658625,-0.645263671875,-0.0877685546875,0.7344970703125,1760515234.5534978
-4.2804878048780495,-5.982926829268293,-0.5853658536585368,-0.6278076171875,-0.1236572265625,0.73681640625,1760515234.6636066
-1.353658536585366,1.0292682926829269,0.3292682926829268,-0.630615234375,-0.1046142578125,0.740234375,1760515234.7731237
0.10975609756097567,-0.25121951219512195,1.6707317073170733,-0.6470947265625,-0.0816650390625,0.7552490234375,1760515234.8864172
1.0853658536585367,2.614634146341464,0.6341463414634146,-0.640869140625,-0.0994873046875,0.7476806640625,1760515234.9988053
0.17073170731707324,0.6024390243902439,-0.8902439024390245,-0.6414794921875,-0.096923828125,0.7449951171875,1760515235.1085312
-0.3170731707317073,-1.0439024390243905,-0.3414634146341465,-0.6435546875,-0.0963134765625,0.7427978515625,1760515235.21832
0.2926829268292684,0.724390243902439,-2.536585365853659,-0.6304931640625,-0.1187744140625,0.7384033203125,1760515235.3285763
-0.13414634146341461,-1.531707317073171,2.8902439024390247,-0.6402587890625,-0.0924072265625,0.751708984375,1760515235.438301
-1.4146341463414636,-1.2878048780487807,0.3292682926829268,-0.646484375,-0.089111328125,0.7467041015625,1760515235.5475392
-0.5609756097560976,-0.4341463414634147,-1.5609756097560978,-0.638916015625,-0.0904541015625,0.7481689453125,1760515235.6588762
-45.865853658536594,58.834146341463416,-152.96341463414635,-0.85498046875,-0.24951171875,0.734619140625,1760515235.770782
-93.85365853658537,25.907317073170734,-50.768292682926834,-0.6221923828125,-0.509521484375,0.5594482421875,1760515235.8824234
-82.69512195121952,16.45609756097561,-80.15853658536585,-0.5643310546875,-0.7113037109375,0.396240234375,1760515235.9921117
-317.6341463414634,60.175609756097565,-240.21951219512198,-0.128173828125,-0.802001953125,-0.236328125,1760515236.1039236
11.634146341463417,8.834146341463414,-10.646341463414634,-0.1798095703125,-0.951904296875,-0.0775146484375,1760515236.2159512
-18.670731707317074,13.102439024390245,-14.121951219512196,-0.1802978515625,-0.9874267578125,-0.1060791015625,1760515236.3307767
-2.3902439024390247,7.065853658536586,-5.219512195121951,-0.136962890625,-0.99560546875,-0.130126953125,1760515236.439804
-3.243902439024391,1.578048780487805,-3.634146341463415,-0.126708984375,-0.9818115234375,-0.11865234375,1760515236.5499167
-4.829268292682928,0.6024390243902439,-5.951219512195122,-0.138427734375,-0.9986572265625,-0.1131591796875,1760515236.6629212
-7.085365853658537,2.614634146341464,-0.40243902439024404,-0.1204833984375,-0.9730224609375,-0.133544921875,1760515236.7733836
-1.8414634146341464,6.821951219512195,-1.0731707317073174,-0.1285400390625,-0.9967041015625,-0.139892578125,1760515236.883819
-5.926829268292684,1.0292682926829269,-0.40243902439024404,-0.1427001953125,-0.9791259765625,-0.135009765625,1760515236.9944327
6.451219512195122,-16.28780487804878,16.609756097560975,-0.1641845703125,-0.990966796875,-0.1131591796875,1760515237.1069741
6.329268292682928,-32.080487804878054,30.146341463414636,-0.1688232421875,-0.965087890625,-0.114501953125,1760515237.2172086
18.34146341463415,-36.34878048780488,24.53658536585366,-0.268798828125,-0.9525146484375,-0.0506591796875,1760515237.3275838
7.0,-16.897560975609757,14.597560975609758,-0.307373046875,-0.951416015625,-0.011962890625,1760515237.4369166
-3.304878048780488,-11.104878048780488,7.76829268292683,-0.344482421875,-0.96142578125,0.0264892578125,1760515237.546281
-18.365853658536587,-13.3609756097561,3.073170731707317,-0.3719482421875,-0.9630126953125,0.021240234375,1760515237.6582897
-24.402439024390244,-8.909756097560976,3.073170731707317,-0.4063720703125,-0.908203125,0.04296875,1760515237.7676437
-1.902439024390244,-14.763414634146343,1.6707317073170733,-0.386474609375,-0.9241943359375,0.0296630859375,1760515237.876934
-4.829268292682928,-11.348780487804879,14.109756097560977,-0.432373046875,-0.9302978515625,0.0465087890625,1760515237.9868417
8.28048780487805,-8.909756097560976,3.9268292682926838,-0.48388671875,-0.8424072265625,0.101806640625,1760515238.0975935
-13.670731707317074,8.22439024390244,-17.84146341463415,-0.4232177734375,-0.887451171875,0.085205078125,1760515238.2097375
-8.24390243902439,11.21219512195122,-16.25609756097561,-0.4136962890625,-0.9010009765625,0.096435546875,1760515238.320638
10.841463414634148,2.7365853658536587,-2.536585365853659,-0.4129638671875,-0.9058837890625,0.0894775390625,1760515238.429705
-8.0,3.9560975609756097,-5.585365853658537,-0.386474609375,-0.90966796875,0.0499267578125,1760515238.5392888
1.207317073170732,-8.482926829268294,8.560975609756099,-0.3966064453125,-0.913818359375,0.0618896484375,1760515238.6641703
-6.414634146341464,-2.080487804878049,-4.304878048780488,-0.4012451171875,-0.900146484375,0.0733642578125,1760515238.7732818
-4.463414634146342,0.05365853658536585,-0.6463414634146343,-0.3946533203125,-0.921142578125,0.0347900390625,1760515238.883013
-4.52439024390244,3.8951219512195125,-5.219512195121951,-0.408203125,-0.9046630859375,0.0521240234375,1760515238.9924076
-6.109756097560976,4.68780487804878,-5.158536585365853,-0.379150390625,-0.9356689453125,0.045654296875,1760515239.1051004
-5.378048780487806,2.6756097560975616,-4.487804878048781,-0.3780517578125,-0.92236328125,0.0223388671875,1760515239.2141364
-19.03658536585366,6.517073170731708,-8.512195121951219,-0.3905029296875,-0.9051513671875,0.018310546875,1760515239.3247695
4.865853658536586,-7.56829268292683,10.939024390243905,-0.388427734375,-0.94189453125,0.01220703125,1760515239.4339833
-5.01219512195122,-5.312195121951221,13.073170731707318,-0.3338623046875,-0.8768310546875,-0.076904296875,1760515239.5474637
-9.341463414634147,3.4682926829268297,-4.0,-0.3814697265625,-0.900390625,-0.072998046875,1760515239.6570473
-6.658536585365854,4.68780487804878,-8.634146341463415,-0.421142578125,-0.92919921875,-0.0106201171875,1760515239.7693865
-0.926829268292683,1.273170731707317,-3.2682926829268295,-0.3873291015625,-0.910888671875,-0.024169921875,1760515239.8787599
1.2682926829268295,-5.55609756097561,2.097560975609756,-0.3709716796875,-0.9053955078125,-0.0360107421875,1760515239.9903731
-4.890243902439025,4.809756097560975,1.2439024390243902,-0.382568359375,-0.9315185546875,-0.0504150390625,1760515240.100416
1.0853658536585367,-2.629268292682927,2.8902439024390247,-0.3841552734375,-0.928466796875,-0.0389404296875,1760515240.2115502
-8.24390243902439,5.419512195121952,-2.414634146341464,-0.3714599609375,-0.9237060546875,-0.05419921875,1760515240.3212986
-3.914634146341464,-3.4829268292682927,-0.7682926829268294,-0.3760986328125,-0.920166015625,-0.0457763671875,1760515240.4343312
2.2439024390243905,-3.1170731707317074,5.75609756097561,-0.3939208984375,-0.9200439453125,-0.03125,1760515240.5448005
-0.8658536585365854,-2.080487804878049,-0.21951219512195133,-0.3814697265625,-0.904541015625,-0.03857421875,1760515240.6549652
-1.4146341463414636,-0.678048780487805,-0.9512195121951221,-0.376708984375,-0.918701171875,-0.05810546875,1760515240.7639456
-5.195121951219513,2.0048780487804883,-2.7195121951219514,-0.368408203125,-0.928955078125,-0.105712890625,1760515240.873367
-3.304878048780488,1.6390243902439026,-2.658536585365854,-0.375244140625,-0.9398193359375,-0.0419921875,1760515240.9875932
8.158536585365855,-4.458536585365854,-1.926829268292683,-0.370361328125,-0.9437255859375,-0.0328369140625,1760515241.096627
52.0609756097561,-11.348780487804879,17.70731707317073,-0.397216796875,-0.9034423828125,0.0159912109375,1760515241.2063136
-1.7804878048780488,1.151219512195122,1.2439024390243902,-0.389404296875,-0.918212890625,0.054931640625,1760515241.317101
-11.414634146341463,1.6390243902439026,-1.8658536585365857,-0.381103515625,-0.919921875,0.03564453125,1760515241.430327
-5.682926829268293,-0.4341463414634147,-1.6829268292682928,-0.3829345703125,-0.9197998046875,0.001220703125,1760515241.541332
-2.878048780487805,0.5414634146341464,-1.7439024390243905,-0.3919677734375,-0.928466796875,0.0103759765625,1760515241.6542535
-8.426829268292684,1.8219512195121952,-5.890243902439025,-0.3914794921875,-0.9261474609375,-0.0054931640625,1760515241.7664554
-5.987804878048781,2.431707317073171,-4.121951219512195,-0.3673095703125,-0.92041015625,-0.009521484375,1760515241.8762236
-2.3902439024390247,3.407317073170732,-3.1463414634146347,-0.3865966796875,-0.924072265625,-0.014892578125,1760515241.9893315
-3.853658536585366,-1.3487804878048781,0.02439024390243894,-0.3612060546875,-0.931396484375,-0.0106201171875,1760515242.1025734
-13.426829268292684,1.3951219512195123,-8.085365853658537,-0.365234375,-0.9268798828125,-0.0189208984375,1760515242.2157395
-2.51219512195122,-1.7146341463414636,15.207317073170733,-0.41162109375,-0.9227294921875,0.033935546875,1760515242.3258984
-2.329268292682927,-0.7390243902439025,-14.182926829268293,-0.3642578125,-0.9302978515625,-0.048095703125,1760515242.439018
-3.6707317073170738,0.8463414634146341,-1.8658536585365857,-0.3797607421875,-0.8929443359375,-0.000244140625,1760515242.5492754
-6.8414634146341475,-0.19024390243902442,-2.9024390243902443,-0.36572265625,-0.9324951171875,-0.056396484375,1760515242.6592648
0.47560975609756106,-1.8975609756097562,1.4268292682926829,-0.34765625,-0.9412841796875,-0.0609130859375,1760515242.772171
-9.036585365853659,3.285365853658537,-5.585365853658537,-0.3675537109375,-0.93603515625,-0.0728759765625,1760515242.8819137
-1.475609756097561,2.5536585365853663,-1.0121951219512197,-0.3509521484375,-0.93115234375,-0.0517578125,1760515242.9914372
-1.2317073170731707,2.858536585365854,-2.048780487804878,-0.3468017578125,-0.9422607421875,-0.069091796875,1760515243.1055975
-3.914634146341464,1.151219512195122,-1.1341463414634148,-0.337646484375,-0.9390869140625,-0.0711669921875,1760515243.2153058
-0.926829268292683,1.5170731707317073,-1.6219512195121955,-0.3193359375,-0.9422607421875,-0.086669921875,1760515243.3311975
-9.097560975609756,-1.7146341463414636,-4.487804878048781,-0.333740234375,-0.93505859375,-0.122314453125,1760515243.4426887
-5.378048780487806,-0.9219512195121953,-3.5731707317073176,-0.326416015625,-0.962890625,-0.103759765625,1760515243.5525777
27.0609756097561,1.9439024390243904,-0.4634146341463416,-0.3450927734375,-0.9522705078125,-0.047119140625,1760515243.668001
8.03658536585366,-0.678048780487805,2.7682926829268295,-0.3316650390625,-0.9520263671875,-0.0489501953125,1760515243.7802935
-11.475609756097562,5.724390243902439,-11.01219512195122,-0.3465576171875,-0.9403076171875,-0.0399169921875,1760515243.889573
0.7804878048780489,2.431707317073171,-5.097560975609756,-0.3778076171875,-0.923583984375,0.0521240234375,1760515244.0027363
15.719512195121954,-7.263414634146343,13.195121951219514,-0.346923828125,-0.9361572265625,-0.0079345703125,1760515244.111869
-2.8170731707317076,11.151219512195123,-8.390243902439025,-0.3482666015625,-0.932861328125,0.0589599609375,1760515244.223285
-24.28048780487805,10.358536585365854,0.7560975609756098,-0.3123779296875,-0.9755859375,-0.033203125,1760515244.3382883
67.67073170731707,7.126829268292683,13.256097560975611,-0.2900390625,-0.9700927734375,0.0252685546875,1760515244.448813
0.902439024390244,5.297560975609756,-17.292682926829272,-0.311767578125,-0.958740234375,0.0595703125,1760515244.5627577
-9.646341463414634,4.078048780487805,-5.402439024390244,-0.306640625,-0.9488525390625,0.0572509765625,1760515244.6734176
-9.21951219512195,2.1268292682926835,-13.26829268292683,-0.316162109375,-0.9490966796875,0.055419921875,1760515244.783649
6.939024390243903,9.200000000000001,-21.195121951219516,-0.3275146484375,-0.9410400390625,0.084716796875,1760515244.893967
-1.6585365853658538,-5.1902439024390254,2.097560975609756,-0.2625732421875,-0.9681396484375,0.047119140625,1760515245.004597
-8.914634146341463,-0.31219512195121957,0.8170731707317073,-0.244384765625,-0.981689453125,0.016845703125,1760515245.1135461
67.85365853658537,3.1024390243902444,9.29268292682927,-0.2691650390625,-0.9609375,0.08056640625,1760515245.2267172
63.707317073170735,4.260975609756097,6.731707317073171,-0.3017578125,-1.0321044921875,0.1876220703125,1760515245.3374598
34.5,-6.165853658536586,125.51219512195124,-0.3487548828125,-0.86962890625,0.1978759765625,1760515245.4511685
28.219512195121954,-0.6170731707317074,44.71951219512195,-0.502685546875,-0.8570556640625,0.3291015625,1760515245.5638433
8.03658536585366,-4.092682926829269,22.829268292682926,-0.508056640625,-0.7679443359375,0.3306884765625,1760515245.6730096
-13.121951219512196,1.9439024390243904,18.926829268292682,-0.476806640625,-0.747802734375,0.2835693359375,1760515245.7830648
59.926829268292686,4.017073170731708,65.02439024390245,-0.6976318359375,-0.5867919921875,0.5120849609375,1760515245.8949265
24.5609756097561,-6.653658536585366,19.597560975609756,-0.6505126953125,-0.5831298828125,0.4713134765625,1760515246.004731
10.04878048780488,-6.7146341463414645,10.329268292682928,-0.654541015625,-0.5693359375,0.4251708984375,1760515246.116469
-10.804878048780488,2.309756097560976,-5.280487804878049,-0.6605224609375,-0.5198974609375,0.501220703125,1760515246.2259505
-0.8658536585365854,0.4804878048780488,-14.487804878048781,-0.66064453125,-0.5421142578125,0.4776611328125,1760515246.3356087
-5.317073170731708,7.797560975609756,4.719512195121952,-0.6395263671875,-0.5950927734375,0.491455078125,1760515246.445667
25.53658536585366,-4.82439024390244,19.170731707317074,-0.6363525390625,-0.607421875,0.4671630859375,1760515246.5550776
-27.878048780487806,2.7975609756097564,-20.158536585365855,-0.661865234375,-0.5980224609375,0.4306640625,1760515246.6640968
-3.487804878048781,1.2121951219512195,-1.5000000000000002,-0.6456298828125,-0.632080078125,0.424072265625,1760515246.7730534
8.76829268292683,-0.9829268292682928,-3.878048780487805,-0.6490478515625,-0.595947265625,0.459716796875,1760515246.882064
1.5121951219512197,-2.202439024390244,-1.0731707317073174,-0.6280517578125,-0.61474609375,0.4454345703125,1760515246.995583
-2.51219512195122,2.1268292682926835,-3.3902439024390247,-0.6505126953125,-0.5830078125,0.445068359375,1760515247.1070712
1.0853658536585367,-1.9585365853658536,0.8780487804878049,-0.6357421875,-0.622802734375,0.442138671875,1760515247.2165368
-1.1097560975609757,2.0048780487804883,-1.926829268292683,-0.6510009765625,-0.6126708984375,0.4400634765625,1760515247.32752
-1.048780487804878,1.273170731707317,-2.1097560975609757,-0.619140625,-0.6322021484375,0.44287109375,1760515247.438133
-4.707317073170732,1.4560975609756097,-2.536585365853659,-0.6239013671875,-0.655517578125,0.410888671875,1760515247.5484712
-6.8414634146341475,-4.458536585365854,-9.792682926829269,-0.628662109375,-0.638671875,0.4071044921875,1760515247.6576257
-10.865853658536585,0.41951219512195126,-13.02439024390244,-0.60986328125,-0.6826171875,0.4056396484375,1760515247.7667425
26.451219512195124,-5.860975609756099,13.073170731707318,-0.60986328125,-0.665771484375,0.4072265625,1760515247.8760192
16.32926829268293,-2.5682926829268293,22.097560975609756,-0.6588134765625,-0.604248046875,0.4349365234375,1760515247.9858577
24.37804878048781,0.9073170731707317,16.0,-0.6529541015625,-0.5623779296875,0.4857177734375,1760515248.095613
-1.5365853658536586,0.29756097560975614,-11.25609756097561,-0.6485595703125,-0.563232421875,0.5037841796875,1760515248.2054193
-2.3902439024390247,2.2487804878048783,-0.15853658536585377,-0.6478271484375,-0.5880126953125,0.4927978515625,1760515248.3211784
2.548780487804878,-1.1658536585365855,-0.6463414634146343,-0.662841796875,-0.57080078125,0.4869384765625,1760515248.4320977
-5.743902439024391,8.529268292682927,-10.707317073170731,-0.641357421875,-0.5706787109375,0.4534912109375,1760515248.5442584
7.8536585365853675,-0.9219512195121953,5.51219512195122,-0.6531982421875,-0.544677734375,0.500732421875,1760515248.6548889
-0.7439024390243902,-0.3731707317073171,-5.463414634146342,-0.658447265625,-0.5394287109375,0.500244140625,1760515248.7648623
4.7439024390243905,-1.5926829268292686,2.3414634146341466,-0.6639404296875,-0.5335693359375,0.5201416015625,1760515248.874595
-0.19512195121951217,-1.104878048780488,-3.207317073170732,-0.6458740234375,-0.5562744140625,0.5152587890625,1760515248.9836102
13.646341463414636,-9.275609756097563,3.3170731707317076,-0.6593017578125,-0.539306640625,0.518798828125,1760515249.0929694
0.17073170731707324,0.7853658536585366,-0.9512195121951221,-0.6260986328125,-0.53759765625,0.53271484375,1760515249.207274
-7.573170731707318,0.41951219512195126,1.1219512195121952,-0.64794921875,-0.5269775390625,0.5152587890625,1760515249.3181512
-0.8048780487804879,-3.8487804878048784,5.26829268292683,-0.6478271484375,-0.543212890625,0.5198974609375,1760515249.4303033
-0.6829268292682927,-0.4341463414634147,4.536585365853659,-0.6417236328125,-0.548583984375,0.5076904296875,1760515249.539535
3.524390243902439,-1.4707317073170734,2.707317073170732,-0.6436767578125,-0.55810546875,0.5091552734375,1760515249.6484647
1.5731707317073174,1.151219512195122,2.951219512195122,-0.6402587890625,-0.5518798828125,0.4986572265625,1760515249.7576365
-0.3780487804878049,-0.9219512195121953,1.1829268292682926,-0.6451416015625,-0.529541015625,0.52099609375,1760515249.8708842
2.6097560975609757,0.4804878048780488,4.658536585365854,-0.646728515625,-0.5589599609375,0.490478515625,1760515249.9801922
-0.8048780487804879,-0.06829268292682929,-0.3414634146341465,-0.6494140625,-0.544921875,0.5240478515625,1760515250.089368
-8.0,2.7365853658536587,-3.085365853658537,-0.641845703125,-0.564453125,0.48583984375,1760515250.202137
-0.19512195121951217,1.0292682926829269,-0.9512195121951221,-0.65283203125,-0.5338134765625,0.5032958984375,1760515250.3154485
1.9390243902439026,0.5414634146341464,2.097560975609756,-0.6466064453125,-0.5565185546875,0.50244140625,1760515250.4243534
0.4146341463414635,4.260975609756097,2.951219512195122,-0.651123046875,-0.54638671875,0.501220703125,1760515250.5343938
1.3902439024390245,1.3951219512195123,1.6097560975609757,-0.656005859375,-0.556640625,0.490966796875,1760515250.6498346
-1.4146341463414636,1.0902439024390245,-0.9512195121951221,-0.6661376953125,-0.527099609375,0.48681640625,1760515250.760177
2.0609756097560976,-2.202439024390244,-1.4390243902439026,-0.6571044921875,-0.5513916015625,0.5018310546875,1760515250.8691962
-1.8414634146341464,1.8219512195121952,1.3048780487804879,-0.6376953125,-0.568359375,0.4962158203125,1760515250.9789
1.0853658536585367,-3.421951219512195,2.4634146341463414,-0.660888671875,-0.530029296875,0.50732421875,1760515251.0908082
2.7926829268292686,-5.312195121951221,21.243902439024392,-0.65087890625,-0.5067138671875,0.5194091796875,1760515251.2056348
1.5121951219512197,-3.05609756097561,9.719512195121952,-0.675048828125,-0.50830078125,0.5008544921875,1760515251.3188195
1.6951219512195124,-0.8609756097560977,-0.9512195121951221,-0.6885986328125,-0.50244140625,0.5042724609375,1760515251.431419
-1.4146341463414636,-2.81219512195122,-5.524390243902439,-0.69140625,-0.5230712890625,0.5198974609375,1760515251.5432513
-1.475609756097561,-2.995121951219512,1.9146341463414636,-0.662109375,-0.5205078125,0.51708984375,1760515251.6551816
1.3902439024390245,-1.8975609756097562,-0.2804878048780489,-0.662841796875,-0.5296630859375,0.51025390625,1760515251.764759
17.792682926829272,-3.421951219512195,14.902439024390246,-0.6793212890625,-0.484130859375,0.513671875,1760515251.8741837
-0.25609756097560976,-22.202439024390245,-1.378048780487805,-0.64404296875,-0.482177734375,0.5281982421875,1760515251.9867258
13.03658536585366,-2.080487804878049,13.682926829268295,-0.67578125,-0.501708984375,0.530517578125,1760515252.0961754
8.341463414634148,1.4560975609756097,7.402439024390245,-0.6722412109375,-0.5,0.5286865234375,1760515252.217319
-8.365853658536585,7.797560975609756,-11.621951219512196,-0.681884765625,-0.5479736328125,0.51708984375,1760515252.3274636
10.170731707317074,-3.6658536585365855,30.02439024390244,-0.739501953125,-0.5269775390625,0.4852294921875,1760515252.4368415
-8.670731707317072,1.4560975609756097,-6.7439024390243905,-0.6724853515625,-0.4788818359375,0.52197265625,1760515252.5460508
-3.243902439024391,-7.751219512195123,-5.402439024390244,-0.671630859375,-0.5208740234375,0.5341796875,1760515252.658582
13.707317073170733,4.809756097560975,15.573170731707318,-0.66650390625,-0.4996337890625,0.5330810546875,1760515252.7680027
-3.060975609756098,16.882926829268293,-5.646341463414634,-0.6754150390625,-0.480712890625,0.609375,1760515252.8773565
-21.109756097560975,-5.06829268292683,-18.207317073170735,-0.89013671875,-0.574462890625,0.6973876953125,1760515252.9865894
-27.451219512195124,8.22439024390244,-19.54878048780488,-0.4906005859375,-0.7239990234375,0.291748046875,1760515253.0989625
136.63414634146343,-138.72682926829268,220.32926829268294,-0.5771484375,-0.35986328125,0.9302978515625,1760515253.2079725
-223.7926829268293,4.139024390243902,-126.31707317073172,-0.603271484375,-0.438720703125,0.5377197265625,1760515253.3174424
-24.158536585365855,14.504878048780489,-35.89024390243903,-0.7113037109375,-0.25439453125,0.6610107421875,1760515253.4293742
0.7195121951219513,-0.31219512195121957,2.402439024390244,-0.685302734375,-0.2236328125,0.670654296875,1760515253.5392354
-6.597560975609757,-2.5682926829268293,-10.28048780487805,-0.71240234375,-0.225830078125,0.6861572265625,1760515253.6484084
-2.5731707317073176,2.0048780487804883,-2.1707317073170733,-0.6942138671875,-0.228759765625,0.67041015625,1760515253.7578275
-0.07317073170731704,2.5536585365853663,1.3658536585365855,-0.6966552734375,-0.2340087890625,0.6629638671875,1760515253.8722935
7.670731707317073,2.3707317073170735,11.121951219512196,-0.6986083984375,-0.217041015625,0.6981201171875,1760515253.9819334
-6.353658536585367,6.517073170731708,-9.609756097560975,-0.7237548828125,-0.179931640625,0.6793212890625,1760515254.0988624
1.9390243902439026,-1.1658536585365855,0.26829268292682923,-0.694580078125,-0.2032470703125,0.6781005859375,1760515254.2112195
2.7926829268292686,2.309756097560976,-8.02439024390244,-0.692626953125,-0.2447509765625,0.6585693359375,1760515254.3216214
9.317073170731708,4.748780487804878,2.2195121951219514,-0.6903076171875,-0.185546875,0.6617431640625,1760515254.434239
5.048780487804878,1.8829268292682928,7.158536585365854,-0.689697265625,-0.1170654296875,0.656494140625,1760515254.5468478
3.829268292682927,-13.543902439024391,15.146341463414636,-0.7689208984375,-0.1607666015625,0.69287109375,1760515254.6587534
1.2682926829268295,22.065853658536586,17.646341463414636,-0.865478515625,-0.3021240234375,0.7789306640625,1760515254.7722828
-15.987804878048781,1.273170731707317,-15.28048780487805,-0.6634521484375,-0.2158203125,0.6712646484375,1760515254.8824642
-16.04878048780488,2.1268292682926835,-5.463414634146342,-0.6807861328125,-0.213134765625,0.6370849609375,1760515254.9996333
-0.07317073170731704,0.175609756097561,-2.231707317073171,-0.7042236328125,-0.2208251953125,0.666015625,1760515255.1219637
-14.097560975609756,15.72439024390244,-58.69512195121952,-0.69189453125,-0.2459716796875,0.597900390625,1760515255.2347715
-9.52439024390244,8.285365853658536,-15.28048780487805,-0.7203369140625,-0.306640625,0.58056640625,1760515255.3439717
8.707317073170733,7.004878048780488,-8.878048780487806,-0.649169921875,-0.462158203125,0.4925537109375,1760515255.4553943
23.463414634146343,15.297560975609757,20.634146341463413,-0.75244140625,-0.2615966796875,0.6585693359375,1760515255.5708168
5.353658536585366,-4.519512195121952,6.548780487804879,-0.7255859375,-0.3001708984375,0.6259765625,1760515255.686639
