Gx,Gy,Gz,Ax,Ay,Az,timestamp
-158.25243902439027,-509.1865853658537,68.63048780487806,-0.837646484375,-0.311279296875,-1.1243896484375,1760516980.5604994
17.17439024390244,-220.9548780487805,179.11829268292684,-0.651123046875,-0.074951171875,0.64013671875,1760516980.6708608
25.284146341463416,173.25243902439027,-2.8329268292682928,-0.6453857421875,0.09912109375,0.927001953125,1760516980.780624
57.90609756097561,186.30121951219516,-19.784146341463416,-1.0408935546875,0.4617919921875,1.9835205078125,1760516980.89615
47.052439024390246,173.00853658536587,-41.491463414634154,-0.3616943359375,-0.039794921875,-0.4161376953125,1760516981.0102994
1.9304878048780487,-376.4426829268293,161.19146341463417,-0.7755126953125,-0.180419921875,0.42529296875,1760516981.119575
60.52804878048781,156.48414634146343,13.569512195121954,-0.879638671875,0.3602294921875,1.570556640625,1760516981.2285123
-58.679268292682934,-240.3451219512195,87.95975609756098,-0.2703857421875,0.01171875,-0.5389404296875,1760516981.3396854
382.54024390243904,-20.528048780487804,38.264634146341464,-2.0,0.5443115234375,1.8829345703125,1760516981.4512413
-17.032926829268295,289.8987804878049,-177.8329268292683,0.839599609375,1.075927734375,0.782958984375,1760516981.564174
-12.276829268292683,-509.49146341463415,82.71585365853659,-0.5634765625,-0.4566650390625,-0.1405029296875,1760516981.674858
10.345121951219513,190.0207317073171,315.7646341463415,-0.3681640625,0.3282470703125,1.2650146484375,1760516981.784514
-255.44756097560978,-316.1987804878049,-475.15000000000003,-1.64111328125,1.2943115234375,-0.5123291015625,1760516981.8935792
299.30853658536586,180.99634146341467,398.1426829268293,-0.963134765625,-0.862060546875,1.99993896484375,1760516982.0028036
-71.42317073170732,214.59390243902442,167.04512195121953,-0.34326171875,0.98046875,0.72998046875,1760516982.114459
-79.16707317073171,-137.41829268292682,-400.8207317073171,-1.3282470703125,0.9222412109375,1.3035888671875,1760516982.2242417
37.41829268292683,504.2280487804879,92.71585365853659,0.5030517578125,-0.341064453125,-0.15631103515625,1760516982.3382678
-227.21585365853662,-678.2719512195123,131.92317073170733,-1.3214111328125,0.39501953125,0.6781005859375,1760516982.4485264
157.11341463414635,196.78902439024392,-75.75975609756098,-1.31005859375,1.3046875,1.982666015625,1760516982.5608842
186.0768292682927,205.63048780487807,23.569512195121956,0.341064453125,-0.601806640625,0.33154296875,1760516982.6715214
-204.47195121951222,-485.34512195121954,372.1060975609756,-0.6834716796875,-0.3616943359375,-0.823974609375,1760516982.7814813
66.86951219512196,367.8256097560976,-531.0646341463414,-2.0,1.99993896484375,1.99993896484375,1760516982.8945553
312.84512195121954,412.8865853658537,23.69146341463415,0.2060546875,-1.5550537109375,1.99993896484375,1760516983.0062222
47.296341463414635,-255.8329268292683,248.87439024390247,-0.854248046875,-0.266357421875,-1.5145263671875,1760516983.117206
-22.94756097560976,-104.73536585365855,125.45975609756098,-1.4019775390625,0.6226806640625,1.9312744140625,1760516983.2264113
49.613414634146345,87.09390243902439,-137.5890243902439,-0.64306640625,1.0203857421875,1.5550537109375,1760516983.3405368
-32.21585365853659,-87.72317073170733,42.53292682926829,-0.1063232421875,-0.0052490234375,0.424560546875,1760516983.4498603
9.43048780487805,-18.271951219512196,-22.101219512195122,-0.6112060546875,0.8973388671875,1.597412109375,1760516983.5594413
23.271951219512196,-14.552439024390244,-23.503658536585366,-0.2794189453125,0.191162109375,0.6419677734375,1760516983.6685843
145.1621951219512,97.52073170731708,-22.710975609756098,-2.0,0.36083984375,1.1048583984375,1760516983.778488
-193.37439024390247,-142.23536585365855,113.14268292682928,-0.400390625,0.22509765625,0.99267578125,1760516983.887635
-77.82560975609756,-49.857317073170734,-41.674390243902444,-0.1038818359375,0.263916015625,0.7677001953125,1760516983.9969
-5.020731707317074,-51.99146341463415,46.61829268292683,-0.090087890625,0.09521484375,0.763671875,1760516984.1074564
116.62560975609757,-52.66219512195122,41.801219512195125,-0.3817138671875,0.0576171875,1.1864013671875,1760516984.2171817
-313.0085365853659,-66.99146341463415,-266.24756097560976,-0.2003173828125,0.142578125,1.016357421875,1760516984.3266068
-3.86219512195122,-1.5036585365853659,121.92317073170733,-0.1123046875,-0.2235107421875,0.8284912109375,1760516984.441929
151.56463414634146,-54.674390243902444,174.30121951219513,-0.1953125,0.11328125,1.068359375,1760516984.5538826
48.63780487804878,-32.17439024390244,-44.113414634146345,0.1116943359375,0.5582275390625,0.462158203125,1760516984.6671479
-30.874390243902443,-39.613414634146345,-98.50365853658538,-0.30517578125,0.5479736328125,1.0902099609375,1760516984.778389
-252.21585365853662,-96.1987804878049,41.00853658536585,-0.0137939453125,0.0201416015625,0.98876953125,1760516984.8905632
181.68658536585366,138.86219512195123,151.13048780487807,-0.1185302734375,0.0428466796875,1.2789306640625,1760516984.9999812
237.72317073170734,-42.96707317073171,59.60609756097561,-0.1842041015625,0.436279296875,1.109130859375,1760516985.1089911
1.5646341463414632,-87.54024390243903,-68.56463414634148,0.029052734375,0.4207763671875,0.512939453125,1760516985.2186983
-380.3256097560976,19.837804878048786,-38.869512195121956,-0.0360107421875,0.0570068359375,1.2353515625,1760516985.3312955
153.2719512195122,-17.235365853658536,21.496341463414637,-0.0419921875,-0.149169921875,1.243408203125,1760516985.4433668
-147.82560975609758,0.630487804878049,-51.91829268292683,-0.1888427734375,0.8427734375,0.6065673828125,1760516985.5524518
94.12560975609757,37.459756097560984,42.2280487804878,0.0023193359375,-0.0489501953125,1.392333984375,1760516985.662628
-16.9109756097561,-96.62560975609757,17.776829268292687,-0.126708984375,0.21484375,0.92724609375,1760516985.7747173
-3.740243902439025,4.289024390243903,13.874390243902441,0.0078125,0.009765625,0.873046875,1760516985.8840551
-12.459756097560977,40.93536585365854,8.935365853658539,-0.0361328125,0.0606689453125,1.221923828125,1760516985.9951136
-15.447560975609758,-19.003658536585366,25.276829268292687,-0.1063232421875,0.03271484375,1.02734375,1760516986.1058474
-1.3012195121951222,-29.552439024390246,-23.74756097560976,0.004150390625,-0.1376953125,0.88671875,1760516986.2193203
34.49146341463415,34.28902439024391,-57.10121951219513,0.0137939453125,0.5455322265625,0.853271484375,1760516986.3306289
-17.825609756097563,43.37439024390245,-22.345121951219515,0.133056640625,-0.19873046875,0.8499755859375,1760516986.4411545
63.3329268292683,-14.308536585365855,9.606097560975611,-0.028076171875,0.1820068359375,0.95556640625,1760516986.5514061
-13.923170731707318,-34.735365853658536,-27.284146341463416,-0.1026611328125,-0.15625,1.080322265625,1760516986.6617057
-19.95975609756098,-23.332926829268292,13.569512195121954,-0.0391845703125,0.1181640625,0.861328125,1760516986.7752004
23.271951219512196,-4.552439024390244,10.39878048780488,-0.0220947265625,-0.0506591796875,0.8387451171875,1760516986.8854508
-36.240243902439026,19.593902439024394,-40.150000000000006,-0.0499267578125,-0.075927734375,1.0863037109375,1760516986.9967225
-88.19146341463414,-54.369512195121956,-12.040243902439023,-0.0421142578125,-0.15771484375,0.748779296875,1760516987.1079025
24.369512195121953,5.996341463414635,8.996341463414636,0.036865234375,-0.1092529296875,1.2745361328125,1760516987.2188663
1.5646341463414632,-30.040243902439023,13.325609756097563,-0.0780029296875,-0.2569580078125,0.8780517578125,1760516987.3325012
44.12560975609756,-18.271951219512196,-27.101219512195122,-0.121826171875,-0.103515625,1.18994140625,1760516987.447924
17.479268292682928,-17.662195121951218,-15.332926829268294,0.033447265625,-0.006103515625,1.0550537109375,1760516987.5640128
13.2109756097561,20.081707317073175,-26.369512195121953,-0.06982421875,0.1297607421875,0.99755859375,1760516987.6734624
36.44268292682927,-6.1987804878048784,13.813414634146344,-0.0269775390625,-0.0753173828125,0.84912109375,1760516987.7853096
38.15,10.996341463414636,2.5329268292682934,-0.05078125,0.037353515625,0.9859619140625,1760516987.9003756
53.82073170731707,-63.271951219512204,44.7280487804878,-0.1099853515625,0.0928955078125,0.9749755859375,1760516988.0134573
20.101219512195122,-31.62560975609756,21.740243902439026,-0.0247802734375,0.266845703125,0.687744140625,1760516988.125002
-115.63048780487806,-30.528048780487804,-42.650000000000006,0.0177001953125,-0.1275634765625,1.270751953125,1760516988.2349048
-22.0329268292683,-4.91829268292683,-2.040243902439024,-0.1572265625,0.220947265625,1.132080078125,1760516988.34456
132.7231707317073,7.032926829268294,27.593902439024394,0.2694091796875,-0.0736083984375,0.9193115234375,1760516988.4550152
-68.55731707317074,-23.942682926829267,4.789024390243903,-0.3837890625,-0.148681640625,1.280029296875,1760516988.5660663
88.08902439024392,-7.601219512195122,17.89878048780488,0.0328369140625,-0.000732421875,1.031005859375,1760516988.680028
25.589024390243903,11.971951219512196,7.350000000000001,-0.1160888671875,-0.200927734375,1.175048828125,1760516988.7919412
16.320731707317073,-46.076829268292684,-6.613414634146341,-0.0389404296875,0.3768310546875,1.0732421875,1760516988.9016635
-31.606097560975613,-100.9548780487805,34.423170731707316,-0.235595703125,-0.5338134765625,0.7916259765625,1760516989.0154536
150.8939024390244,272.8256097560976,42.2280487804878,0.2230224609375,0.3316650390625,1.357666015625,1760516989.1308143
-19.4719512195122,-57.357317073170734,-5.454878048780488,-0.4991455078125,0.1600341796875,1.3028564453125,1760516989.242664
11.198780487804878,-43.75975609756098,15.581707317073173,0.0198974609375,-0.2509765625,0.2421875,1760516989.354199
38.15,54.35000000000001,-11.064634146341463,-0.5025634765625,0.6494140625,1.606201171875,1760516989.466743
-70.50853658536586,-83.2109756097561,-25.028048780487804,-0.1043701171875,-0.2379150390625,0.5703125,1760516989.577325
108.3939024390244,51.24024390243903,32.167073170731705,-0.1151123046875,0.31201171875,1.1915283203125,1760516989.6878884
-46.42317073170732,4.715853658536586,-13.13780487804878,-0.246826171875,0.0418701171875,0.77099609375,1760516989.802278
33.454878048780486,26.301219512195125,-4.90609756097561,-0.1162109375,-0.1219482421875,1.16162109375,1760516989.916718
-28.618292682926835,-96.1987804878049,-6.735365853658537,-0.353515625,0.08837890625,1.125732421875,1760516990.0258574
-20.264634146341468,-54.796341463414635,4.545121951219513,-0.06201171875,-0.185302734375,0.5205078125,1760516990.139459
162.23536585365855,115.26463414634146,39.057317073170736,-0.3514404296875,0.6383056640625,1.566650390625,1760516990.2557113
-41.362195121951224,-47.96707317073171,4.728048780487805,-0.4158935546875,0.238525390625,0.944580078125,1760516990.3674905
29.430487804878048,26.850000000000005,16.43536585365854,-0.011474609375,-0.35498046875,0.620361328125,1760516990.479709
-12.154878048780489,3.86219512195122,-47.893902439024394,-0.617919921875,0.4219970703125,1.315673828125,1760516990.5910509
-6.545121951219513,-56.50365853658537,-11.552439024390244,-0.1756591796875,0.13330078125,0.6763916015625,1760516990.7035391
-20.081707317073175,48.37439024390245,42.4719512195122,-0.3397216796875,0.8536376953125,1.392578125,1760516990.8144732
-126.78902439024392,-66.56463414634148,-41.369512195121956,-0.05615234375,-0.1109619140625,0.3123779296875,1760516990.9408135
55.58902439024391,79.59390243902439,-2.65,-0.500732421875,0.303955078125,1.3819580078125,1760516991.0519242
-47.70365853658537,-191.74756097560976,-1.6134146341463411,-0.2509765625,0.0177001953125,0.830078125,1760516991.1635983
5.040243902439024,21.728048780487807,-2.040243902439024,0.0902099609375,0.064697265625,0.5711669921875,1760516991.2739344
8.698780487804878,-13.2109756097561,22.89878048780488,-0.451171875,0.101806640625,1.2435302734375,1760516991.3847349
10.40609756097561,-1.198780487804878,0.3378048780487809,-0.146240234375,-0.2283935546875,0.623291015625,1760516991.4942162
54.30853658536586,12.703658536585367,55.27682926829269,-0.724365234375,0.247802734375,1.6580810546875,1760516991.6060307
-9.654878048780489,-59.97926829268293,10.337804878048782,-0.125244140625,-0.1627197265625,0.47021484375,1760516991.719998
75.04024390243903,1.7890243902439027,24.66707317073171,-0.519775390625,0.4312744140625,1.4178466796875,1760516991.8340776
24.003658536585366,-27.052439024390246,22.654878048780493,-0.1031494140625,-0.198974609375,0.4600830078125,1760516991.9441185
64.97926829268293,-8.454878048780488,27.106097560975613,-0.7308349609375,0.176513671875,1.7088623046875,1760516992.0543077
-32.581707317073175,-139.85731707317075,2.289024390243903,-0.2052001953125,0.00048828125,0.6326904296875,1760516992.1693897
80.7109756097561,159.959756097561,38.203658536585365,-0.2110595703125,0.407958984375,1.3258056640625,1760516992.2852793
-17.093902439024394,-14.003658536585366,12.65487804878049,-0.246337890625,-0.052978515625,0.78271484375,1760516992.3986077
44.00365853658537,17.764634146341468,24.789024390243906,-0.181396484375,-0.4427490234375,1.072021484375,1760516992.5139918
-40.63048780487805,-42.78414634146342,-25.089024390243903,-0.39453125,0.3204345703125,0.9100341796875,1760516992.6285899
89.85731707317075,-28.515853658536585,-2.101219512195122,-0.0753173828125,0.161865234375,0.892822265625,1760516992.739265
33.69878048780488,-20.89390243902439,-19.66219512195122,-0.19384765625,-0.12060546875,0.4989013671875,1760516992.851501
-132.94756097560978,23.801219512195125,-71.61341463414635,-0.3697509765625,0.010009765625,1.3701171875,1760516992.9634902
13.576829268292684,-14.857317073170734,40.39878048780488,-0.30908203125,0.37841796875,0.862548828125,1760516993.0820043
-23.618292682926832,-5.832926829268293,-110.2109756097561,-0.3447265625,0.2509765625,1.0980224609375,1760516993.1924722
60.58902439024391,-98.3939024390244,73.93536585365854,-0.1080322265625,0.230224609375,0.7972412109375,1760516993.302075
165.2841463414634,16.545121951219517,28.20365853658537,-0.7237548828125,0.009765625,1.5513916015625,1760516993.4138474
-88.43536585365854,-29.430487804878048,-3.381707317073171,-0.1846923828125,0.3973388671875,0.850341796875,1760516993.5228443
313.6987804878049,-33.69878048780488,31.80121951219512,-0.0908203125,0.3525390625,0.8065185546875,1760516993.635009
-435.5085365853659,-47.66219512195122,-187.7719512195122,-0.17138671875,0.048583984375,0.9715576171875,1760516993.7504246
113.8207317073171,54.959756097560984,62.22804878048781,-0.4954833984375,0.2000732421875,1.3314208984375,1760516993.8597934
-328.3134146341464,3.0695121951219515,-167.10121951219514,-0.51806640625,0.187255859375,1.5093994140625,1760516993.9691195
222.41829268292685,-145.9548780487805,77.59390243902439,-0.0487060546875,0.3145751953125,0.5855712890625,1760516994.079493
129.06463414634146,43.13048780487806,35.33780487804878,-0.19189453125,0.1922607421875,0.896240234375,1760516994.1939874
-297.1548780487805,5.142682926829269,-161.1256097560976,-0.431640625,0.65673828125,1.04541015625,1760516994.3077593
184.85731707317075,-32.296341463414635,184.48414634146343,-0.5059814453125,-0.476806640625,1.32958984375,1760516994.418386
295.65000000000003,-53.02804878048781,107.5329268292683,-0.0341796875,-0.010009765625,0.3572998046875,1760516994.5351677
241.0158536585366,44.654878048780496,99.17926829268293,-0.1146240234375,0.7138671875,0.6329345703125,1760516994.64693
-239.65487804878052,-49.97926829268293,-87.40609756097562,-0.3836669921875,0.5208740234375,0.822998046875,1760516994.7594137
-375.0207317073171,-51.25975609756098,-212.7109756097561,-0.435302734375,0.0111083984375,1.183837890625,1760516994.8702145
160.2231707317073,42.88658536585366,56.67926829268293,-0.4873046875,-0.2850341796875,1.233154296875,1760516994.9801161
325.71097560975613,4.3500000000000005,182.6548780487805,-0.392822265625,0.4661865234375,1.24609375,1760516995.094258
151.74756097560976,-73.94268292682928,139.11829268292684,0.0611572265625,0.586669921875,0.39794921875,1760516995.2067487
-239.65487804878052,-41.869512195121956,-111.55243902439025,-0.10009765625,0.40673828125,0.55859375,1760516995.3157852
-298.3743902439025,56.9719512195122,-208.80853658536589,-0.74658203125,0.046875,1.59326171875,1760516995.4266067
301.99146341463415,-6.13780487804878,84.30121951219513,-0.8262939453125,-0.2091064453125,1.5931396484375,1760516995.545846
297.47926829268295,-95.65000000000002,141.31341463414634,0.0289306640625,0.325927734375,0.4085693359375,1760516995.6564531
-67.76463414634146,-9.247560975609757,-15.15,-0.2783203125,0.1683349609375,0.7608642578125,1760516995.7688003
-142.58170731707318,63.740243902439026,-159.23536585365855,-0.5914306640625,0.5115966796875,1.3614501953125,1760516995.8798833
-2.8256097560975615,-33.576829268292684,23.874390243902443,-0.452880859375,0.2716064453125,1.06640625,1760516995.9921684
113.02804878048782,-141.74756097560976,144.11829268292684,0.049072265625,-0.14697265625,0.5245361328125,1760516996.109234
-3.313414634146342,95.63048780487806,-15.332926829268294,-0.2764892578125,-0.042236328125,1.0467529296875,1760516996.2190933
177.41829268292685,5.447560975609757,81.55731707317074,-0.490234375,0.619384765625,1.0025634765625,1760516996.3282697
-153.61829268292686,-46.015853658536585,-7.589024390243902,-0.4312744140625,0.46728515625,0.81982421875,1760516996.4524634
195.65,10.813414634146342,74.72804878048781,-0.390869140625,0.198486328125,1.0286865234375,1760516996.5627594
-193.13048780487807,-14.735365853658537,-84.23536585365855,-0.3232421875,0.6953125,0.8251953125,1760516996.6721425
-76.05731707317074,-24.064634146341465,-78.86951219512196,-0.7078857421875,0.267333984375,1.22509765625,1760516996.7868605
-11.057317073170733,-3.454878048780488,-47.710975609756105,-0.4483642578125,0.590087890625,0.7666015625,1760516996.8966749
-36.85000000000001,4.715853658536586,-19.90609756097561,-0.384765625,0.153076171875,0.9732666015625,1760516997.006223
-6.240243902439025,-70.46707317073172,32.53292682926829,-0.335693359375,0.3582763671875,1.052001953125,1760516997.1194854
-47.0329268292683,-82.90609756097562,14.301219512195125,-0.4630126953125,0.1263427734375,0.8311767578125,1760516997.2310717
36.80853658536586,58.862195121951224,-6.2475609756097565,-0.3236083984375,0.5369873046875,0.8206787109375,1760516997.341494
11.320731707317075,2.2768292682926834,41.19146341463415,-0.4656982421875,-0.00390625,1.05029296875,1760516997.462052
24.857317073170734,-14.735365853658537,36.19146341463415,-0.2213134765625,-0.0020751953125,0.992431640625,1760516997.5719264
8.515853658536585,-31.259756097560977,0.459756097560976,-0.4844970703125,0.422607421875,0.9215087890625,1760516997.6827378
5.040243902439024,-69.24756097560977,15.398780487804881,-0.462158203125,0.24609375,1.0731201171875,1760516997.7936153
15.710975609756098,-25.040243902439023,18.020731707317076,-0.23681640625,-0.0843505859375,0.5145263671875,1760516997.905123
37.235365853658536,44.898780487804885,6.61829268292683,-0.231201171875,0.1026611328125,1.2772216796875,1760516998.01446
-8.740243902439026,-27.052439024390246,33.56951219512195,-0.294921875,0.39404296875,0.7403564453125,1760516998.1269672
-11.667073170731708,5.020731707317074,-19.235365853658536,-0.5469970703125,0.64013671875,1.1737060546875,1760516998.2373674
1.0158536585365852,-37.052439024390246,1.1304878048780493,-0.449462890625,-0.1611328125,0.85009765625,1760516998.3473618
2.6621951219512194,1.8500000000000003,-6.613414634146341,-0.0078125,0.1876220703125,0.8927001953125,1760516998.4576201
-35.87439024390245,-78.02804878048782,-11.857317073170732,-0.325927734375,0.226806640625,0.9041748046875,1760516998.5683572
29.979268292682928,5.020731707317074,11.313414634146344,-0.1102294921875,0.052490234375,0.4671630859375,1760516998.6796808
-23.313414634146344,3.679268292682927,-46.674390243902444,-0.566162109375,0.5677490234375,1.375244140625,1760516998.7904491
-8.191463414634148,-50.40609756097561,44.11829268292683,-0.6732177734375,-0.1578369140625,0.8504638671875,1760516998.905373
75.28414634146343,38.00853658536586,32.53292682926829,0.0050048828125,0.09619140625,1.063232421875,1760516999.0197847
-18.19146341463415,-63.15000000000001,12.959756097560978,-0.48779296875,0.11669921875,0.8612060546875,1760516999.131234
10.65,9.593902439024392,-23.38170731707317,-0.3011474609375,0.5982666015625,0.59619140625,1760516999.2459419
129.24756097560976,1.2402439024390246,51.43536585365854,-0.6591796875,0.1480712890625,1.58837890625,1760516999.359221
-253.80121951219516,-67.78414634146343,-101.36951219512196,-0.418212890625,-0.36474609375,1.12890625,1760516999.4702106
156.44268292682926,-13.637804878048781,107.16707317073171,-0.166259765625,0.4344482421875,0.682861328125,1760516999.5851912
-63.55731707317073,-0.16219512195121932,-83.32073170731708,-0.5770263671875,0.427490234375,1.1260986328125,1760516999.6950696
-46.60609756097561,-104.55243902439025,-23.076829268292684,-0.39306640625,0.3558349609375,0.98291015625,1760516999.8076375
7.66219512195122,-5.832926829268293,-1.6134146341463411,-0.1563720703125,0.0316162109375,0.7000732421875,1760516999.9214
50.7719512195122,88.67926829268293,-7.832926829268292,-0.15966796875,0.074951171875,1.3931884765625,1760517000.032599
-42.94756097560976,-108.88170731707318,26.67926829268293,-0.468994140625,0.03662109375,0.822998046875,1760517000.1461463
31.259756097560977,20.20365853658537,-7.162195121951219,-0.4185791015625,0.152587890625,0.66943359375,1760517000.2558315
-2.581707317073171,89.22804878048781,3.4475609756097567,-0.2264404296875,0.030029296875,1.36669921875,1760517000.365047
1.9304878048780487,-91.86951219512197,57.045121951219514,-0.5638427734375,0.085205078125,0.658447265625,1760517000.478043
23.63780487804878,34.71585365853659,-2.223170731707317,-0.3240966796875,0.28564453125,0.6640625,1760517000.5928674
21.503658536585366,18.862195121951224,17.4109756097561,-0.21826171875,0.2279052734375,1.2376708984375,1760517000.702576
-21.606097560975613,-67.05243902439025,-6.979268292682927,-0.6441650390625,0.073486328125,0.73193359375,1760517000.812673
-6.179268292682927,14.959756097560977,4.11829268292683,-0.4483642578125,0.2578125,1.12451171875,1760517000.9223707
8.515853658536585,1.8500000000000003,-12.345121951219513,-0.4375,0.0626220703125,0.9300537109375,1760517001.0334702
79.73536585365855,-114.36951219512197,0.5207317073170736,-0.314453125,0.300537109375,0.823974609375,1760517001.143594
-70.69146341463414,-15.589024390243903,-5.089024390243902,-0.550537109375,-0.027587890625,0.8956298828125,1760517001.2541115
28.028048780487804,-58.150000000000006,51.557317073170736,-0.456787109375,0.1387939453125,1.1077880859375,1760517001.3643332
46.32073170731707,-52.296341463414635,-24.601219512195122,-0.1949462890625,-0.07763671875,0.8441162109375,1760517001.4779363
67.84512195121953,-84.79634146341465,-38.68658536585367,-0.8939208984375,1.22021484375,0.607666015625,1760517001.587339
4.491463414634146,48.13048780487806,72.22804878048781,-0.373046875,-0.32373046875,0.668701171875,1760517001.6979907
-71.72804878048781,-87.47926829268295,-19.357317073170734,-0.8638916015625,-0.0604248046875,1.5888671875,1760517001.8081284
-98.31341463414634,115.32560975609756,-45.08902439024391,0.3265380859375,-0.4305419921875,1.5355224609375,1760517001.9251726
-98.80121951219513,-140.4060975609756,0.032926829268293066,-0.9144287109375,0.3076171875,1.3577880859375,1760517002.0365922
-70.93536585365854,120.87439024390244,70.33780487804879,-0.0242919921875,-0.337158203125,1.0950927734375,1760517002.1459053
76.68658536585367,-123.08902439024392,-36.552439024390246,-0.7099609375,0.4061279296875,1.247314453125,1760517002.2565603
-125.44756097560978,29.4109756097561,39.9719512195122,-0.22509765625,0.0872802734375,0.8194580078125,1760517002.367701
3.0890243902439023,-16.930487804878048,-19.601219512195122,-0.3970947265625,-0.0380859375,1.1441650390625,1760517002.4776616
48.576829268292684,32.398780487804885,10.764634146341466,-0.5057373046875,0.2257080078125,0.9320068359375,1760517002.5960748
23.089024390243903,46.66707317073171,-48.07682926829269,-0.185302734375,-0.4678955078125,0.970703125,1760517002.7053378
-6.8500000000000005,-31.38170731707317,-15.39390243902439,-0.5643310546875,0.4649658203125,0.7945556640625,1760517002.8262763
90.65000000000002,39.04512195121952,22.4109756097561,-0.439453125,0.00439453125,0.9571533203125,1760517002.9370208
-43.13048780487806,-133.0890243902439,49.484146341463415,-0.3350830078125,0.332275390625,0.5750732421875,1760517003.04974
210.3451219512195,119.95975609756098,63.75243902439025,-0.8099365234375,0.98828125,1.36181640625,1760517003.1642406
-147.45975609756098,-106.62560975609757,48.081707317073175,-0.114501953125,-0.46337890625,0.020263671875,1760517003.2754176
-17.154878048780493,-164.55243902439025,12.471951219512198,-0.3663330078125,0.623779296875,0.5101318359375,1760517003.4300315
11.381707317073172,52.215853658536595,26.13048780487805,-0.5072021484375,0.5765380859375,1.117919921875,1760517003.5404146
-5.813414634146342,-65.10121951219513,-82.46707317073172,-0.1591796875,-0.720703125,1.0426025390625,1760517003.6543698
-78.06951219512196,91.11829268292684,1.4353658536585372,-0.46044921875,0.6666259765625,0.7476806640625,1760517003.7692919
13.089024390243903,-10.223170731707318,31.984146341463415,-0.5103759765625,-0.4830322265625,1.4605712890625,1760517003.8821304
-43.435365853658546,-64.43048780487806,-96.97926829268293,-0.4775390625,0.33740234375,0.867431640625,1760517003.9946616
-38.49634146341464,108.67926829268293,53.99634146341464,-0.312255859375,0.5042724609375,0.67822265625,1760517004.1074524
-9.228048780487805,-121.259756097561,-24.723170731707317,-0.51171875,-0.311279296875,1.161865234375,1760517004.217237
107.17439024390245,-143.4548780487805,-106.30853658536587,-0.37841796875,0.576904296875,0.51904296875,1760517004.3307571
-106.17926829268293,162.88658536585368,39.7280487804878,-0.441162109375,0.0816650390625,1.129150390625,1760517004.442677
51.74756097560976,-20.65,74.11829268292684,-0.5340576171875,-0.1324462890625,0.9365234375,1760517004.554563
53.150000000000006,-33.576829268292684,-46.55243902439025,-0.5902099609375,0.4290771484375,0.9188232421875,1760517004.6660788
47.113414634146345,-74.30853658536587,7.410975609756099,-0.2086181640625,0.1246337890625,0.096435546875,1760517004.7758281
-100.02073170731708,10.264634146341464,-69.29634146341465,-1.2298583984375,-0.1417236328125,1.84423828125,1760517004.8988483
-64.95975609756097,72.39878048780488,-40.393902439024394,-0.172607421875,-0.0587158203125,0.1688232421875,1760517005.0116227
-49.4719512195122,18.43536585365854,-29.296341463414635,-1.2879638671875,0.0172119140625,1.577880859375,1760517005.1259131
100.7109756097561,-137.7231707317073,20.886585365853662,-0.2093505859375,0.0052490234375,0.0638427734375,1760517005.2419312
10.954878048780488,114.77682926829269,-113.68658536585367,-0.53125,0.2479248046875,1.3428955078125,1760517005.3514504
-6.3621951219512205,13.679268292682929,21.252439024390245,-0.4031982421875,0.1815185546875,0.7130126953125,1760517005.4643269
0.345121951219512,32.0329268292683,18.813414634146344,-0.3221435546875,-0.6668701171875,1.0316162109375,1760517005.5755527
384.49146341463415,-9.064634146341463,-12.40609756097561,-0.76611328125,0.656494140625,-0.2406005859375,1760517005.6868727
16.808536585365854,3.130487804878049,77.89878048780488,-0.244384765625,-0.4228515625,0.8834228515625,1760517005.8009999
-60.87439024390245,-81.62560975609757,-26.91829268292683,-0.633544921875,0.599853515625,0.527587890625,1760517005.9169555
-73.25243902439024,66.78902439024391,63.50853658536586,-0.4989013671875,-0.0325927734375,1.102783203125,1760517006.02995
51.015853658536585,-88.3939024390244,-86.79634146341465,-0.2479248046875,-0.3782958984375,0.7017822265625,1760517006.1405883
-51.24024390243903,-118.4548780487805,-45.393902439024394,-0.4034423828125,0.079833984375,0.90771484375,1760517006.2545896
-31.48414634146342,29.106097560975613,16.19146341463415,-0.24755859375,-0.310546875,0.9420166015625,1760517006.3638115
113.6378048780488,-41.13780487804878,-57.58902439024391,-0.2652587890625,-0.2945556640625,1.4334716796875,1760517006.4735093
-106.30121951219513,193.19146341463417,4.789024390243903,-0.369140625,0.0501708984375,0.7501220703125,1760517006.5853515
-2.2768292682926834,-91.93048780487806,-49.66219512195123,-0.38671875,-0.405517578125,1.230224609375,1760517006.697074
147.60121951219512,48.19146341463415,-6.369512195121952,-0.511962890625,0.2230224609375,0.374267578125,1760517006.8100595
-39.22804878048781,-39.674390243902444,-7.7109756097560975,-0.23876953125,-0.5455322265625,1.396484375,1760517006.920083
273.88170731707316,24.776829268292687,6.496341463414635,-0.6920166015625,0.5994873046875,0.0465087890625,1760517007.0318027
-14.837804878048782,-22.90609756097561,-16.796341463414635,-0.18212890625,-0.5218505859375,1.3331298828125,1760517007.1420486
208.4548780487805,-129.49146341463415,-39.47926829268293,-0.501708984375,0.5621337890625,0.2001953125,1760517007.253169
41.13780487804878,82.52073170731707,28.508536585365857,-0.2447509765625,-0.513916015625,1.1326904296875,1760517007.3644574
34.12560975609756,-79.43048780487806,-38.74756097560976,-0.463134765625,-0.264892578125,1.2679443359375,1760517007.4780455
-88.74024390243903,138.25243902439027,63.020731707317076,0.0924072265625,-0.249755859375,0.01220703125,1760517007.5887454
8.698780487804878,-87.47926829268295,-51.247560975609765,-0.9613037109375,0.4754638671875,1.25341796875,1760517007.7059507
-70.38658536585366,101.66707317073171,-62.710975609756105,-0.0902099609375,0.136962890625,-0.0067138671875,1760517007.8205793
-49.28902439024391,-164.12560975609756,-59.29634146341464,-1.085205078125,0.18408203125,1.6153564453125,1760517007.9339538
75.28414634146343,222.88658536585368,-31.18658536585366,-0.2161865234375,0.1611328125,0.582275390625,1760517008.0460978
-23.92317073170732,-135.65,14.42317073170732,-0.7872314453125,0.2142333984375,1.2379150390625,1760517008.160373
8.210975609756098,172.82560975609758,33.142682926829266,-0.1224365234375,-0.1424560546875,0.86865234375,1760517008.276871
17.723170731707317,-120.65000000000002,7.106097560975611,-0.5772705078125,0.595458984375,0.7159423828125,1760517008.389565
-34.4719512195122,-30.710975609756098,184.48414634146343,-0.226318359375,-0.2725830078125,0.480224609375,1760517008.5064647
118.15000000000002,-98.82073170731708,29.789024390243906,-0.3760986328125,-0.0426025390625,0.8880615234375,1760517008.619345
5.467073170731708,85.75243902439024,-89.29634146341465,-0.2607421875,-0.9337158203125,0.67626953125,1760517008.7340782
49.369512195121956,-25.89390243902439,-7.40609756097561,-0.57861328125,0.0665283203125,1.0399169921875,1760517008.8438802
131.93048780487806,-53.88170731707317,45.21585365853659,-0.2611083984375,0.5592041015625,0.4166259765625,1760517008.9554322
-160.99634146341467,-0.28414634146341444,-169.05243902439025,-0.8458251953125,-0.853759765625,1.1019287109375,1760517009.0710561
-2.2768292682926834,43.98414634146342,3.6304878048780496,-0.2125244140625,0.2957763671875,0.6473388671875,1760517009.1815605
205.4060975609756,-12.90609756097561,218.63048780487807,-0.2205810546875,0.2867431640625,0.5653076171875,1760517009.292693
71.1378048780488,-76.62560975609757,-26.003658536585366,-0.6287841796875,-0.484375,1.0101318359375,1760517009.4043279
40.16219512195122,14.715853658536586,66.25243902439024,-0.0894775390625,0.4384765625,0.4373779296875,1760517009.526578
-12.825609756097561,-8.332926829268294,9.179268292682929,-0.8082275390625,-0.3919677734375,1.0355224609375,1760517009.6412642
74.18658536585367,-33.2719512195122,-21.24756097560976,-0.2391357421875,0.9718017578125,0.218994140625,1760517009.759122
-168.92317073170733,-40.832926829268295,-160.6987804878049,-1.1278076171875,-0.8541259765625,1.16455078125,1760517009.8724937
130.7719512195122,9.959756097560977,-48.44268292682928,0.2152099609375,-0.0762939453125,-0.197265625,1760517009.982952
98.08902439024392,51.60609756097561,95.64268292682928,-1.1397705078125,0.128662109375,1.238037109375,1760517010.0952952
100.04024390243904,-106.1378048780488,-3.625609756097561,-0.6239013671875,-0.071044921875,0.3465576171875,1760517010.2070954
-80.38658536585366,68.74024390243902,-64.47926829268293,-2.0,-0.5205078125,1.836181640625,1760517010.317825
-8.801219512195123,-74.97926829268293,157.47195121951222,-0.1484375,-0.2545166015625,0.559326171875,1760517010.4309325
155.4670731707317,18.801219512195125,45.39878048780488,-0.398193359375,0.255615234375,0.6260986328125,1760517010.545961
-30.75243902439025,-47.90609756097561,100.58170731707318,-0.82861328125,0.0264892578125,0.934326171875,1760517010.6731343
107.54024390243904,-144.06463414634146,-117.16219512195123,-0.427001953125,-0.143798828125,0.6158447265625,1760517010.7875676
-140.44756097560978,169.10609756097563,51.67926829268293,-0.343017578125,-0.488037109375,1.39208984375,1760517010.8977246
181.0768292682927,-69.36951219512196,124.17926829268293,-0.351806640625,0.40478515625,0.609375,1760517011.0070205
-20.569512195121956,30.69146341463415,6.069512195121952,-1.4952392578125,0.2030029296875,1.7115478515625,1760517011.119613
261.86951219512196,-121.99146341463417,-84.84512195121953,-0.08984375,0.2122802734375,-0.477783203125,1760517011.2356339
-61.42317073170732,83.80121951219512,-44.84512195121952,-1.392333984375,-0.5885009765625,1.3885498046875,1760517011.3483768
81.80853658536587,-49.43048780487805,-83.68658536585367,-0.183837890625,0.233642578125,-0.0146484375,1760517011.4661362
27.479268292682928,13.313414634146342,54.17926829268293,-0.826904296875,-0.52880859375,1.2059326171875,1760517011.5781314
190.4060975609756,-21.442682926829267,-21.979268292682928,-0.4267578125,1.1217041015625,0.3382568359375,1760517011.6889322
-6.971951219512196,-114.30853658536587,1.6182926829268298,-0.838623046875,-0.3851318359375,1.0103759765625,1760517011.8020453
-48.37439024390245,15.508536585365855,-63.747560975609765,-0.488037109375,-0.591064453125,1.08154296875,1760517011.9148955
-91.85000000000001,-21.442682926829267,-11.12560975609756,-0.16162109375,0.142333984375,0.718994140625,1760517012.0275998
132.54024390243902,-60.58902439024391,-6.674390243902439,-0.2752685546875,0.4903564453125,-0.0684814453125,1760517012.138327
-326.7280487804878,-55.650000000000006,-119.05243902439025,-1.16455078125,-0.2060546875,1.996826171875,1760517012.2526615
82.78414634146343,-39.796341463414635,-55.393902439024394,-0.4315185546875,0.0023193359375,0.590576171875,1760517012.3626726
116.259756097561,-144.06463414634146,-68.07682926829268,-0.613037109375,0.4361572265625,0.29541015625,1760517012.475242
-72.21585365853659,155.50853658536587,50.45975609756098,-0.2318115234375,-0.26123046875,0.7677001953125,1760517012.5875587
18.39390243902439,-137.9670731707317,-11.308536585365854,-0.789794921875,-0.046875,1.4891357421875,1760517012.7001595
52.54024390243903,233.43536585365857,-19.723170731707317,-0.0740966796875,0.324951171875,-0.0057373046875,1760517012.8093622
-15.447560975609758,-27.723170731707317,-55.271951219512204,-0.7412109375,0.2593994140625,-0.188232421875,1760517012.920859
-210.75243902439027,-137.05243902439025,56.37439024390244,-0.343994140625,-0.26806640625,1.4246826171875,1760517013.034006
154.12560975609756,-44.674390243902444,131.67926829268293,-0.046630859375,-0.16650390625,-0.06689453125,1760517013.1446059
2.174390243902439,55.99634146341464,2.4719512195121958,0.0252685546875,-0.308349609375,0.324951171875,1760517013.2550812
-107.52073170731708,-142.7231707317073,-63.991463414634154,-0.5714111328125,-0.0936279296875,0.901611328125,1760517013.3651073
38.2109756097561,312.5207317073171,-16.979268292682928,-0.948974609375,-0.1051025390625,1.872314453125,1760517013.478258
-9.350000000000001,-27.540243902439023,101.80121951219513,-0.916259765625,0.36767578125,0.6575927734375,1760517013.5921502
-66.24024390243902,-152.7231707317073,66.19146341463416,-0.5455322265625,0.2239990234375,1.087890625,1760517013.7065604
18.454878048780486,62.703658536585365,-104.29634146341465,-0.86181640625,-0.524658203125,0.7142333984375,1760517013.82405
62.41829268292683,-43.75975609756098,21.557317073170736,-0.4176025390625,0.02734375,0.7420654296875,1760517013.9399238
-52.94756097560976,38.740243902439026,124.11829268292684,-0.6123046875,0.33447265625,0.7340087890625,1760517014.0521512
-125.0817073170732,-35.04024390243902,-116.73536585365855,-0.708984375,0.2156982421875,0.690673828125,1760517014.165964
149.24756097560976,-35.954878048780486,83.50853658536586,-0.677490234375,-0.1427001953125,1.0032958984375,1760517014.2763107
133.4548780487805,-133.15,55.520731707317076,-0.7335205078125,0.05224609375,0.2786865234375,1760517014.3866513
-199.959756097561,-32.54024390243902,-7.40609756097561,-0.6695556640625,-0.2650146484375,1.337646484375,1760517014.4971426
168.82073170731707,-119.18658536585367,33.93536585365854,-0.2476806640625,0.0699462890625,-0.0904541015625,1760517014.6082504
-75.99634146341464,-27.052439024390246,-109.96707317073172,-0.8487548828125,-0.405517578125,1.2144775390625,1760517014.7197864
131.0768292682927,-58.150000000000006,48.14268292682927,-0.68408203125,0.6270751953125,0.2589111328125,1760517014.8293412
17.35731707317073,81.54512195121951,92.77682926829269,-0.32958984375,-0.26171875,0.7276611328125,1760517014.9397674
32.41829268292683,-158.0890243902439,-125.15000000000002,-0.7674560546875,0.12109375,0.8988037109375,1760517015.0519896
-19.4109756097561,130.20365853658538,127.41097560975611,-0.2647705078125,-0.0537109375,0.9019775390625,1760517015.1624777
-113.31341463414634,-89.18658536585367,-55.63780487804879,-0.59765625,0.168701171875,0.68408203125,1760517015.2757106
56.930487804878055,126.85000000000002,79.42317073170732,-0.3663330078125,0.089599609375,1.12255859375,1760517015.39083
115.58902439024392,-130.9548780487805,-41.613414634146345,-0.3590087890625,-0.2081298828125,0.769775390625,1760517015.5036013
202.23536585365855,-27.357317073170734,76.67926829268293,-0.4610595703125,0.15478515625,0.390869140625,1760517015.6134317
-504.1060975609757,13.984146341463417,2.4719512195121958,-0.137939453125,-0.4482421875,1.4754638671875,1760517015.7266748
207.17439024390245,-11.259756097560976,25.70365853658537,-0.104736328125,0.0072021484375,0.2491455078125,1760517015.838654
-251.11829268292686,-19.430487804878048,-65.82073170731708,-0.7083740234375,0.1104736328125,1.01953125,1760517015.9523184
-123.80121951219513,40.32560975609756,0.6426829268292688,-0.17041015625,-0.8497314453125,1.255859375,1760517016.0659797
67.84512195121953,20.874390243902443,103.20365853658538,-0.42822265625,0.0621337890625,0.53515625,1760517016.1783447
-28.496341463414637,-75.10121951219513,-17.40609756097561,-0.583251953125,-0.1214599609375,1.0650634765625,1760517016.28952
278.57682926829267,77.64268292682927,9.545121951219514,-0.5081787109375,0.157958984375,0.83740234375,1760517016.4025877
-20.142682926829274,-1.9914634146341463,-7.589024390243902,-0.66357421875,0.3760986328125,0.8145751953125,1760517016.5176346
-197.03292682926832,-46.56463414634147,-108.1378048780488,-0.2122802734375,0.0948486328125,0.8560791015625,1760517016.6316006
85.58902439024392,-14.369512195121953,-1.5524390243902437,-0.5269775390625,0.119873046875,0.905029296875,1760517016.7521322
81.1378048780488,-33.332926829268295,-31.18658536585366,-0.477783203125,0.15283203125,1.091552734375,1760517016.8630455
74.91829268292685,2.215853658536586,11.130487804878051,-0.6060791015625,-0.1129150390625,1.0086669921875,1760517016.9738584
117.66219512195123,-15.954878048780488,-5.15,-0.8271484375,0.2362060546875,1.107421875,1760517017.0887969
-106.60609756097561,-44.674390243902444,-68.19878048780488,-0.3116455078125,0.65283203125,0.46630859375,1760517017.207001
-220.2036585365854,-56.62560975609756,-0.2109756097560972,-0.3333740234375,-0.0428466796875,0.828369140625,1760517017.3186228
629.4914634146342,25.569512195121956,173.02073170731708,-0.3951416015625,0.154296875,0.8892822265625,1760517017.4280834
-377.0329268292683,-10.589024390243903,-103.0158536585366,-0.4212646484375,-0.138671875,1.5103759765625,1760517017.539141
-6.11829268292683,-42.60121951219512,43.264634146341464,-0.3616943359375,-0.076416015625,0.861572265625,1760517017.6501608
-423.4353658536586,-16.015853658536585,-101.85731707317075,-0.203369140625,1.0499267578125,0.720947265625,1760517017.7601783
326.0158536585366,11.971951219512196,50.82560975609756,-0.46923828125,-0.1461181640625,1.1783447265625,1760517017.8721018
718.4548780487805,28.008536585365857,148.56951219512197,-0.4488525390625,0.1539306640625,1.063720703125,1760517017.9917667
366.62560975609756,-34.552439024390246,111.13048780487806,-0.39501953125,-0.3883056640625,1.073486328125,1760517018.1026597
-62.0329268292683,-33.2719512195122,-7.954878048780487,-0.2232666015625,0.319580078125,0.7918701171875,1760517018.2157705
-541.3012195121952,-5.40609756097561,-109.90609756097562,-0.275634765625,0.247314453125,0.8414306640625,1760517018.328492
-137.88658536585368,6.910975609756099,-4.296341463414634,-0.463134765625,0.6978759765625,1.085205078125,1760517018.4408906
317.35731707317075,38.31341463414635,89.24024390243903,-0.5003662109375,0.2171630859375,0.8201904296875,1760517018.550626
351.1987804878049,5.569512195121952,143.93536585365854,-0.3251953125,0.2572021484375,0.728759765625,1760517018.6626678
4.369512195121952,-47.84512195121951,70.03292682926829,-0.1600341796875,0.107666015625,0.8992919921875,1760517018.7744648
-179.959756097561,-17.235365853658536,-40.88170731707318,-0.6463623046875,0.2484130859375,0.97998046875,1760517018.8903034
-1.7280487804878053,10.996341463414636,-56.91829268292684,-0.1326904296875,0.343994140625,0.69091796875,1760517019.008581
-253.80121951219516,-46.25975609756098,25.825609756097563,-0.113037109375,0.720947265625,0.5557861328125,1760517019.118758
35.954878048780486,36.42317073170732,20.64268292682927,-0.7012939453125,-0.1953125,1.0623779296875,1760517019.231759
99.30853658536587,-27.17439024390244,24.728048780487807,-0.45361328125,0.3414306640625,1.1044921875,1760517019.3438745
-32.581707317073175,-46.44268292682927,20.39878048780488,-0.2476806640625,0.2249755859375,0.5806884765625,1760517019.455373
-39.77682926829269,-17.296341463414635,24.240243902439026,-0.3656005859375,0.1868896484375,1.02783203125,1760517019.5658996
36.44268292682927,-10.589024390243903,2.1060975609756105,-0.622802734375,0.1165771484375,1.1396484375,1760517019.6765811
-63.19146341463415,-33.88170731707317,-1.3695121951219509,-0.16943359375,0.166748046875,0.3048095703125,1760517019.786155
44.552439024390246,-9.552439024390244,34.36219512195122,-0.1962890625,0.15576171875,1.2119140625,1760517019.8993776
-38.13048780487805,-81.80853658536587,10.459756097560978,-0.5380859375,0.162109375,0.852294921875,1760517020.0087242
-7.947560975609757,17.093902439024394,-6.430487804878049,-0.384521484375,0.2689208984375,1.1434326171875,1760517020.1212826
14.91829268292683,-59.00365853658537,7.471951219512196,-0.1544189453125,0.0849609375,0.763671875,1760517020.2308304
0.8939024390243901,40.020731707317076,5.947560975609757,-0.1187744140625,0.117431640625,0.62841796875,1760517020.3428433
-171.17926829268296,98.06951219512196,-41.613414634146345,-0.6890869140625,0.18994140625,1.3468017578125,1760517020.4529433
12.41829268292683,-91.93048780487806,-74.60121951219513,-0.6278076171875,0.27587890625,1.0419921875,1760517020.5638306
67.96707317073172,-160.9548780487805,-4.235365853658537,-0.1634521484375,0.125244140625,0.5626220703125,1760517020.6749747
67.35731707317075,29.776829268292687,27.776829268292687,-0.089599609375,0.2025146484375,0.789306640625,1760517020.788371
-310.4475609756098,87.76463414634146,-18.808536585365854,-0.2950439453125,0.05078125,0.8603515625,1760517020.9055893
-28.496341463414637,52.581707317073175,6.801219512195123,-0.675048828125,-0.4422607421875,1.0648193359375,1760517021.0148695
180.5890243902439,-144.85731707317075,21.008536585365857,-0.3936767578125,-0.063720703125,0.9609375,1760517021.1338866
237.8451219512195,-82.23536585365855,21.92317073170732,-0.11181640625,0.1556396484375,0.4552001953125,1760517021.2485137
90.65000000000002,156.17926829268296,-6.430487804878049,-0.2396240234375,0.5047607421875,0.7779541015625,1760517021.3585572
-6.11829268292683,35.081707317073175,-59.05243902439025,-0.681884765625,0.62060546875,1.0087890625,1760517021.4678087
-52.64268292682927,-108.15000000000002,0.09390243902439063,-0.4705810546875,0.4891357421875,0.7567138671875,1760517021.576856
-209.04512195121953,-125.10121951219513,-33.869512195121956,-0.112548828125,0.1666259765625,0.6383056640625,1760517021.6886833
-219.47195121951222,52.398780487804885,-25.089024390243903,-0.20166015625,-0.3714599609375,0.8809814453125,1760517021.799149
114.85731707317075,25.569512195121956,104.17926829268293,-0.9598388671875,-0.544921875,1.1820068359375,1760517021.911601
289.61341463414635,-122.66219512195123,81.31341463414634,-0.23681640625,-0.0267333984375,0.743896484375,1760517022.0248184
26.68658536585366,-33.15,-15.881707317073172,-0.2061767578125,0.2906494140625,0.556884765625,1760517022.1360612
-50.32560975609757,118.55731707317074,9.9109756097561,-0.342529296875,0.5611572265625,0.931396484375,1760517022.2492876
-69.95975609756097,-13.2109756097561,-53.747560975609765,-0.593505859375,0.4017333984375,1.0828857421875,1760517022.3596516
-181.11829268292686,-142.9670731707317,5.764634146341464,-0.2998046875,-0.05029296875,0.7291259765625,1760517022.469024
-59.959756097560984,15.752439024390247,15.642682926829272,-0.2166748046875,-0.3431396484375,0.5489501953125,1760517022.5844452
256.74756097560976,13.252439024390245,96.43536585365854,-0.60791015625,-0.2457275390625,1.1904296875,1760517022.698466
107.47926829268295,-60.22317073170732,19.85,-0.5087890625,-0.1651611328125,1.236572265625,1760517022.808286
161.1378048780488,-130.8329268292683,19.789024390243906,-0.1805419921875,0.14794921875,0.7554931640625,1760517022.9182367
12.967073170731709,95.81341463414634,26.313414634146344,-0.152099609375,0.3267822265625,0.4619140625,1760517023.0312302
-90.69146341463414,16.545121951219517,-69.29634146341465,-0.6185302734375,0.5849609375,1.369140625,1760517023.1421876
-151.30121951219513,-72.05243902439025,-56.674390243902444,-0.510498046875,0.1103515625,1.0628662109375,1760517023.2536876
-170.63048780487807,-30.89390243902439,6.13048780487805,-0.1539306640625,-0.1876220703125,0.5003662109375,1760517023.367104
10.710975609756098,57.0329268292683,22.89878048780488,-0.481689453125,-0.30126953125,1.1864013671875,1760517023.479323
241.3207317073171,-64.85731707317075,80.94756097560976,-0.499755859375,-0.1915283203125,1.0433349609375,1760517023.5891023
365.52804878048784,-78.94268292682928,57.71585365853659,-0.242919921875,0.4097900390625,0.5013427734375,1760517023.6995063
-119.83780487804879,72.88658536585366,-56.12560975609757,-0.1767578125,0.5050048828125,0.7918701171875,1760517023.8099978
-100.20365853658537,3.0085365853658543,-86.61341463414635,-0.5435791015625,0.478271484375,1.0718994140625,1760517023.9287956
-358.3134146341464,-88.94268292682928,-68.86951219512196,-0.3936767578125,0.02734375,0.9632568359375,1760517024.040663
-57.215853658536595,-3.6378048780487804,-36.30853658536586,-0.2608642578125,-0.4498291015625,0.7760009765625,1760517024.149819
133.6378048780488,57.459756097560984,33.142682926829266,-0.419677734375,-0.39794921875,1.021728515625,1760517024.2635064
476.4426829268293,-32.90609756097561,125.0939024390244,-0.4447021484375,0.16796875,0.92626953125,1760517024.375933
-74.16707317073171,14.228048780487807,-27.589024390243903,-0.231689453125,0.7791748046875,0.263671875,1760517024.4910355
-44.22804878048781,13.496341463414636,46.06951219512195,-0.541015625,0.172119140625,0.9688720703125,1760517024.6018355
7.66219512195122,31.66707317073171,88.38658536585366,0.1519775390625,1.071044921875,1.7294921875,1760517024.720144
36.32073170731707,-155.5890243902439,24.17926829268293,-0.3792724609375,-0.0067138671875,0.955322265625,1760517024.8297126
52.41829268292683,242.459756097561,-41.369512195121956,-0.160400390625,0.2464599609375,-0.071533203125,1760517024.9397619
-68.49634146341464,-61.38170731707317,-64.90609756097562,-1.2109375,-0.2156982421875,1.4967041015625,1760517025.0514855
70.5890243902439,-143.75975609756097,-19.90609756097561,-0.036865234375,-0.065673828125,-0.46337890625,1760517025.161562
2.540243902439024,146.66707317073173,-48.38170731707318,-1.2799072265625,-0.2493896484375,1.374267578125,1760517025.270785
82.72317073170733,-197.47926829268295,26.19146341463415,-0.593994140625,0.131103515625,0.2193603515625,1760517025.3818824
-199.41097560975612,211.97195121951222,13.996341463414637,-0.6248779296875,-0.8472900390625,1.6072998046875,1760517025.4969397
102.29634146341465,-166.259756097561,-145.759756097561,-0.869384765625,-0.0294189453125,0.7537841796875,1760517025.6116292
-18.67926829268293,283.1914634146342,-108.68658536585367,-0.05419921875,-0.14404296875,-0.237548828125,1760517025.7226222
489.97926829268295,-106.259756097561,239.05731707317074,-0.0872802734375,-0.234375,-0.3214111328125,1760517025.8340776
44.97926829268293,133.19146341463417,63.99634146341464,0.12548828125,-0.1363525390625,0.17138671875,1760517025.943218
268.08902439024394,-73.5158536585366,-93.44268292682928,-1.7386474609375,-0.30810546875,0.9375,1760517026.0531673
36.86951219512195,220.75243902439027,17.959756097560977,-0.3533935546875,-0.3040771484375,-0.5267333984375,1760517026.1735067
-380.569512195122,-207.9060975609756,-24.41829268292683,-1.9908447265625,-0.4932861328125,1.99993896484375,1760517026.2885315
-204.53292682926832,251.72804878048782,19.545121951219514,-0.10546875,-0.10107421875,0.771728515625,1760517026.3999622
-50.38658536585366,-292.23536585365855,4.179268292682927,-0.3092041015625,-0.4346923828125,1.16064453125,1760517026.510205
-313.069512195122,355.8743902439025,-21.735365853658536,-0.7095947265625,-0.54736328125,1.86865234375,1760517026.622983
397.05243902439025,-326.1987804878049,65.76463414634146,-0.586669921875,0.09228515625,0.0345458984375,1760517026.733008
-309.1670731707317,117.88658536585366,-36.30853658536586,-0.751953125,-0.6634521484375,1.99993896484375,1760517026.8442214
20.710975609756098,-116.50365853658538,96.74024390243903,-0.605224609375,-0.06298828125,-0.139892578125,1760517026.9544759
-23.374390243902443,-12.113414634146343,3.020731707317074,-1.023681640625,-0.4403076171875,1.4404296875,1760517027.065686
188.6987804878049,-199.30853658536586,1.1304878048780493,-0.080078125,0.0240478515625,-0.75341796875,1760517027.1786711
-101.17926829268293,29.593902439024394,-62.04024390243903,-0.8826904296875,-0.258544921875,1.4486083984375,1760517027.291553
4.369512195121952,-117.66219512195123,-68.80853658536586,-0.5350341796875,0.0252685546875,0.524169921875,1760517027.4068987
-332.7036585365854,247.7646341463415,-224.60121951219514,-2.0,-0.1884765625,1.99993896484375,1760517027.5167518
-104.59390243902439,-76.38170731707318,-11.918292682926829,-0.5118408203125,-0.125732421875,0.74462890625,1760517027.627275
93.94268292682928,-187.9060975609756,-30.332926829268295,-0.278076171875,0.0687255859375,-0.358642578125,1760517027.7385693
-591.789024390244,184.65487804878052,85.21585365853659,-0.0775146484375,-1.0665283203125,1.99993896484375,1760517027.8509517
-46.42317073170732,-111.259756097561,-73.44268292682928,-0.7425537109375,-0.04833984375,0.779052734375,1760517027.9628184
204.91829268292685,46.118292682926835,5.581707317073172,-0.20361328125,-0.0333251953125,-0.487060546875,1760517028.0722258
468.6378048780488,-168.6378048780488,-61.308536585365864,-1.4156494140625,-0.43212890625,0.2813720703125,1760517028.1862137
18.942682926829267,-137.11341463414635,-5.6987804878048784,-0.3980712890625,-0.1470947265625,0.3167724609375,1760517028.3016815
-54.22804878048781,171.11829268292686,-2.4060975609756095,-0.8448486328125,-0.0262451171875,1.3709716796875,1760517028.4124596
145.9548780487805,-292.54024390243904,-6.430487804878049,-0.6220703125,0.07861328125,0.880126953125,1760517028.5232563
-37.154878048780496,418.9841463414635,-41.73536585365854,0.1131591796875,-0.1575927734375,-0.1051025390625,1760517028.6343994
189.55243902439025,-201.0158536585366,77.59390243902439,-0.364013671875,0.178955078125,0.52392578125,1760517028.7455497
61.01585365853659,-91.80853658536587,38.69146341463415,-0.0941162109375,-0.1678466796875,0.1890869140625,1760517028.861392
-50.20365853658537,-35.58902439024391,-8.991463414634145,-1.0439453125,-0.3397216796875,1.568359375,1760517028.9731982
228.0890243902439,-317.78414634146344,25.032926829268295,-0.353515625,-0.280517578125,-0.2210693359375,1760517029.0837445
-211.36219512195126,402.0329268292683,2.4719512195121958,-0.592041015625,-0.0068359375,1.75244140625,1760517029.1942375
84.06463414634148,-100.46707317073172,75.88658536585366,-0.4573974609375,0.073974609375,0.51611328125,1760517029.3050113
-8.679268292682927,-125.34512195121951,-9.967073170731707,-0.62744140625,-0.3961181640625,1.085205078125,1760517029.4168186
-90.26463414634146,238.37439024390247,-2.4060975609756095,-0.6304931640625,-0.065185546875,1.0093994140625,1760517029.5279162
56.25975609756098,-120.71097560975612,55.0329268292683,-0.5238037109375,-0.0224609375,0.8458251953125,1760517029.6467512
-31.24024390243903,133.98414634146343,32.59390243902439,-0.6209716796875,0.009765625,1.102294921875,1760517029.7560418
-32.70365853658537,-7.601219512195122,-26.67439024390244,-0.748046875,-0.2127685546875,0.955810546875,1760517029.8661706
46.015853658536585,-120.28414634146343,-33.74756097560976,-0.468994140625,0.134033203125,0.661376953125,1760517029.9775186
-18.313414634146344,142.21585365853662,20.764634146341468,-0.875244140625,0.115478515625,1.03564453125,1760517030.0870368
134.79634146341465,-77.05243902439025,93.26463414634146,-0.6240234375,0.029296875,0.4364013671875,1760517030.1975613
54.30853658536586,-34.00365853658537,-4.296341463414634,-0.9508056640625,-0.02734375,1.2880859375,1760517030.3126485
109.24756097560977,-2.723170731707317,30.39878048780488,-0.0081787109375,-0.103515625,-0.0682373046875,1760517030.4237955
16.076829268292684,-45.893902439024394,5.154878048780489,-0.84765625,-0.1583251953125,1.1038818359375,1760517030.5372672
105.65000000000002,-80.10121951219513,-12.345121951219513,-0.4461669921875,-0.056396484375,0.3272705078125,1760517030.6510072
-94.35000000000001,195.20365853658538,-0.14999999999999963,-0.726806640625,-0.2215576171875,1.4365234375,1760517030.7626822
-76.11829268292684,-43.63780487804878,8.203658536585367,-0.4432373046875,-0.0938720703125,0.92919921875,1760517030.8733547
106.50365853658538,-47.47926829268293,79.78902439024391,-0.3216552734375,0.165283203125,0.3260498046875,1760517030.9825425
71.80853658536587,-24.491463414634147,-18.076829268292684,-1.0091552734375,-0.1229248046875,0.8411865234375,1760517031.0930622
-168.37439024390247,-85.52804878048782,-89.66219512195123,-0.577880859375,-0.232177734375,0.7703857421875,1760517031.20326
-38.92317073170732,125.50853658536587,-118.38170731707318,-0.66552734375,0.1385498046875,1.038818359375,1760517031.3130803
53.393902439024394,-70.7109756097561,-12.040243902439023,-0.7508544921875,-0.0762939453125,1.2127685546875,1760517031.4220529
-76.36219512195122,69.89878048780488,51.61829268292683,-0.2705078125,0.0699462890625,0.2427978515625,1760517031.5351064
-110.93536585365854,-0.22317073170731688,-23.38170731707317,-0.73388671875,0.54248046875,1.0479736328125,1760517031.6463878
222.9060975609756,-178.5158536585366,-19.17439024390244,-0.142822265625,-0.2598876953125,0.0440673828125,1760517031.757358
14.247560975609757,110.14268292682927,-22.101219512195122,-1.1568603515625,0.0904541015625,1.4449462890625,1760517031.8744266
103.2109756097561,-148.2109756097561,2.9597560975609762,-0.552978515625,-0.0338134765625,0.957275390625,1760517031.9860754
-119.89878048780488,111.11829268292684,38.020731707317076,-0.458740234375,-0.0999755859375,0.95458984375,1760517032.1015415
265.65000000000003,-75.34512195121953,8.569512195121954,-1.081298828125,0.085205078125,0.57958984375,1760517032.2117333
122.84512195121953,-84.36951219512197,52.95975609756098,-0.0382080078125,-0.4134521484375,0.057373046875,1760517032.333042
-43.98414634146342,56.057317073170736,-81.30853658536586,-2.0,0.337646484375,1.823486328125,1760517032.4454606
136.99146341463415,-117.90609756097562,15.398780487804881,-0.1903076171875,0.1024169921875,-0.007080078125,1760517032.5612016
-94.10609756097561,101.05731707317074,-10.15,-0.794921875,-0.2998046875,1.1961669921875,1760517032.680917
39.735365853658536,-113.6378048780488,-47.10121951219513,-0.748046875,0.0986328125,0.9200439453125,1760517032.795025
148.5158536585366,21.118292682926832,-99.54024390243903,-0.1627197265625,-0.0582275390625,-0.599609375,1760517032.9054105
-24.16707317073171,30.935365853658542,13.508536585365857,-1.1156005859375,-0.10400390625,1.2908935546875,1760517033.0244431
-1.6670731707317077,-20.040243902439023,190.3378048780488,-0.1649169921875,-0.2198486328125,0.1463623046875,1760517033.1386206
-119.28902439024391,5.569512195121952,-45.94268292682928,-0.99560546875,-0.2069091796875,1.2958984375,1760517033.2514048
-5.996341463414635,-39.97926829268293,-10.820731707317073,-0.5394287109375,-0.1871337890625,0.89306640625,1760517033.3644807
-44.16707317073171,73.00853658536586,-42.893902439024394,-0.591552734375,0.0050048828125,0.86767578125,1760517033.477414
24.979268292682928,-37.60121951219512,-71.36951219512196,-0.689208984375,-0.11865234375,1.29052734375,1760517033.5890508
135.10121951219512,213.06951219512197,-11.003658536585366,-0.6138916015625,0.723388671875,1.3194580078125,1760517033.6997514
-335.2646341463415,60.87439024390245,-152.8939024390244,-1.021240234375,0.241943359375,1.4306640625,1760517033.81413
-62.764634146341464,-24.003658536585366,-64.78414634146343,-0.3480224609375,-0.185546875,0.756591796875,1760517033.9236786
-26.301219512195125,64.04512195121951,21.801219512195125,-0.611572265625,0.0941162109375,0.9869384765625,1760517034.037094
121.50365853658538,-64.18658536585367,-38.74756097560976,-0.7196044921875,0.26904296875,0.8875732421875,1760517034.1509094
7.357317073170732,62.764634146341464,66.49634146341464,-0.314208984375,-0.0858154296875,0.4483642578125,1760517034.2610276
-81.24024390243903,-35.34512195121951,-44.66219512195123,-0.9698486328125,0.0721435546875,1.0767822265625,1760517034.3709297
50.22317073170732,-59.552439024390246,5.3378048780487815,-0.15673828125,-0.25732421875,0.52197265625,1760517034.4807315
-15.14268292682927,43.31341463414635,-23.68658536585366,-1.21044921875,0.2183837890625,1.27294921875,1760517034.5917943
38.393902439024394,-38.454878048780486,5.459756097560977,-0.24609375,0.1522216796875,0.5157470703125,1760517034.7069025
90.8329268292683,80.50853658536586,56.557317073170736,-0.5250244140625,-0.2314453125,0.739013671875,1760517034.8202538
-13.435365853658539,-18.515853658536585,-61.61341463414635,-1.0904541015625,0.20703125,1.1485595703125,1760517034.9311593
126.07682926829268,-57.78414634146342,-20.39390243902439,-0.17626953125,-0.3797607421875,0.4210205078125,1760517035.0433924
103.5158536585366,53.19146341463415,-38.62560975609757,-1.312255859375,0.1671142578125,0.9962158203125,1760517035.156814
61.869512195121956,-160.2231707317073,25.520731707317076,-0.09765625,-0.2744140625,0.463623046875,1760517035.2821214
-518.3743902439024,-18.15,-31.003658536585366,-1.1551513671875,-0.546630859375,1.99993896484375,1760517035.3947625
-89.35000000000001,-92.05243902439025,-72.9548780487805,-0.6002197265625,-0.184814453125,1.0908203125,1760517035.5078335
159.73536585365855,161.48414634146343,50.520731707317076,-0.1094970703125,-0.642333984375,0.5958251953125,1760517035.617345
10.954878048780488,26.301219512195125,-79.11341463414635,-1.073486328125,0.38037109375,1.1671142578125,1760517035.7275708
131.50365853658536,19.045121951219517,34.05731707317073,-0.26025390625,-0.164794921875,0.652587890625,1760517035.8389575
-201.97195121951222,16.606097560975613,-68.0158536585366,-0.9178466796875,-0.0205078125,1.29345703125,1760517035.952113
117.35731707317075,-55.650000000000006,-10.576829268292682,-0.5986328125,0.05224609375,0.6077880859375,1760517036.0620327
177.41829268292685,122.0329268292683,4.789024390243903,-0.6497802734375,-0.0303955078125,1.3548583984375,1760517036.175657
85.7719512195122,-132.05243902439025,68.38658536585366,-0.468994140625,0.509521484375,1.10693359375,1760517036.2901845
454.67439024390245,167.15487804878052,127.35000000000001,-0.204833984375,-0.083984375,1.2562255859375,1760517036.4054308
-63.55731707317073,-47.90609756097561,26.862195121951224,-0.6649169921875,0.4456787109375,0.9205322265625,1760517036.5145884
113.02804878048782,-7.113414634146342,55.703658536585365,-0.683349609375,0.313720703125,0.9483642578125,1760517036.6276312
-86.24024390243903,-68.3939024390244,-57.95487804878049,-0.39013671875,-0.5706787109375,0.9737548828125,1760517036.7460735
-120.50853658536586,68.43536585365854,-40.271951219512204,-0.9205322265625,0.20556640625,1.158447265625,1760517036.8558354
47.47926829268293,-141.1378048780488,81.31341463414634,-0.5853271484375,0.2122802734375,0.6414794921875,1760517036.9651983
-33.618292682926835,146.78902439024392,11.679268292682929,-0.640625,-0.4373779296875,1.162353515625,1760517037.076281
15.406097560975612,-24.308536585365854,-27.650000000000002,-0.9674072265625,0.296630859375,0.9998779296875,1760517037.1907635
206.74756097560976,-125.83292682926829,25.886585365853662,-0.305908203125,-0.56689453125,0.51806640625,1760517037.3029337
55.52804878048781,126.05731707317075,-37.04024390243903,-0.8216552734375,0.154052734375,0.8448486328125,1760517037.4161468
107.41829268292685,-94.61341463414635,90.88658536585366,-0.2578125,-0.020751953125,0.6348876953125,1760517037.5307188
-182.70365853658538,118.31341463414634,34.9719512195122,-0.798828125,-0.2738037109375,1.3037109375,1760517037.6418831
-75.26463414634146,2.7036585365853663,-53.01585365853659,-0.4837646484375,0.11572265625,1.0111083984375,1760517037.7542768
-7.154878048780489,-91.0768292682927,-20.576829268292684,-0.534423828125,0.1217041015625,0.77197265625,1760517037.86496
110.46707317073172,91.91097560975611,-122.34512195121953,0.211669921875,-0.2696533203125,-0.201416015625,1760517037.9793763
-119.22804878048781,78.06951219512196,-58.991463414634154,-1.071044921875,-0.02197265625,1.4254150390625,1760517038.091524
-23.008536585365857,-53.150000000000006,-15.881707317073172,-0.807373046875,0.121826171875,1.093994140625,1760517038.2052076
-7.764634146341464,-89.79634146341465,187.16707317073173,-0.1578369140625,-0.4046630859375,-0.4013671875,1760517038.3197267
-197.70365853658538,238.31341463414637,-208.0768292682927,-0.8841552734375,-0.028564453125,0.7474365234375,1760517038.4322712
-2.6426829268292686,-25.832926829268292,-38.930487804878055,-0.80615234375,0.22265625,1.0313720703125,1760517038.543922
77.90609756097562,-143.3329268292683,42.2890243902439,-0.1064453125,-0.230224609375,-0.057861328125,1760517038.6532068
-77.15487804878049,89.71585365853659,-40.210975609756105,-0.958740234375,-0.0413818359375,1.261962890625,1760517038.7651188
155.1621951219512,-240.9548780487805,10.825609756097563,-0.5772705078125,0.1181640625,0.8431396484375,1760517038.875116
-41.54512195121952,122.70365853658537,55.15487804878049,0.197998046875,-0.2457275390625,-0.3238525390625,1760517038.9863808
466.7475609756098,139.16707317073173,-33.44268292682927,-0.555419921875,0.199462890625,-0.18212890625,1760517039.101502
129.18658536585366,-34.43048780487805,35.45975609756098,-0.931884765625,0.20068359375,0.7908935546875,1760517039.211154
79.97926829268295,-296.80853658536586,-15.271951219512195,-0.453857421875,0.1378173828125,0.546875,1760517039.322604
-169.10609756097563,304.2280487804878,-0.0280487804878045,-0.405517578125,-0.187255859375,0.996826171875,1760517039.433828
-11.11829268292683,-30.528048780487804,5.3378048780487815,-0.644287109375,0.0665283203125,0.6546630859375,1760517039.5456455
-33.31341463414635,-71.38170731707318,-54.54024390243903,-0.8466796875,0.0382080078125,1.19091796875,1760517039.6603062
-67.21585365853659,-137.7231707317073,111.55731707317074,-0.104248046875,-0.200927734375,-0.9781494140625,1760517039.7702763
-60.26463414634147,164.59390243902442,172.16707317073173,-0.508056640625,0.4189453125,0.5816650390625,1760517039.8879664
16.442682926829267,-24.247560975609755,10.764634146341466,-0.6258544921875,0.0421142578125,0.7275390625,1760517039.9991024
20.832926829268292,-120.10121951219514,-56.18658536585367,-1.0875244140625,0.064453125,1.2451171875,1760517040.10834
17.662195121951218,255.87439024390247,-15.454878048780488,-0.1441650390625,-0.203369140625,-0.3006591796875,1760517040.220181
118.21097560975612,-33.02804878048781,-2.2841463414634147,-0.91455078125,0.0791015625,0.6026611328125,1760517040.3380198
37.357317073170734,-15.467073170731709,3.996341463414635,-0.7313232421875,0.0166015625,0.7088623046875,1760517040.447764
43.88170731707317,-389.55243902439025,-15.454878048780488,0.1280517578125,-0.0762939453125,0.099853515625,1760517040.5580525
