Gx,Gy,Gz,Ax,Ay,Az,timestamp
-8.128658536585366,-1.0292682926829269,-1.998170731707317,-0.5501708984375,-0.1187744140625,0.771484375,1760516673.2349315
-27.762804878048783,-8.407317073170733,-9.925,-0.5748291015625,-0.173828125,0.804443359375,1760516673.3442986
98.0908536585366,2.3853658536585365,13.489634146341464,-0.5877685546875,-0.1842041015625,0.7755126953125,1760516673.4589198
146.01768292682928,12.32439024390244,27.20914634146342,-0.6514892578125,0.1376953125,0.8333740234375,1760516673.5780945
68.51768292682928,-2.980487804878049,-3.8884146341463417,-0.556396484375,0.345458984375,0.726318359375,1760516673.6904528
3.151829268292683,20.8609756097561,23.306707317073172,-0.5638427734375,0.2314453125,0.7542724609375,1760516673.8028193
-98.73841463414635,-5.96829268292683,21.843292682926833,-0.5794677734375,0.1602783203125,0.7628173828125,1760516673.9142585
-179.4701219512195,12.141463414634147,-86.63231707317074,-0.5667724609375,-0.0777587890625,0.94189453125,1760516674.0282493
-87.3359756097561,-19.078048780487805,-23.21768292682927,-0.5753173828125,-0.181640625,0.82080078125,1760516674.1414356
-59.53109756097561,-13.71219512195122,-25.778658536585368,-0.5108642578125,-0.2769775390625,0.7413330078125,1760516674.2532327
-7.214024390243903,-11.029268292682927,-2.973780487804878,-0.5015869140625,-0.35595703125,0.74658203125,1760516674.3647542
22.420121951219514,-3.5292682926829273,6.904268292682928,-0.4947509765625,-0.335205078125,0.7579345703125,1760516674.477062
69.18841463414635,5.7390243902439035,24.526219512195127,-0.522705078125,-0.392333984375,0.796875,1760516674.5891802
56.07865853658537,24.763414634146343,26.050609756097565,-0.54150390625,-0.1485595703125,0.8128662109375,1760516674.7019074
40.529878048780496,12.263414634146343,4.099390243902439,-0.590087890625,-0.011474609375,0.8292236328125,1760516674.8157763
22.603048780487807,18.482926829268294,1.2335365853658538,-0.6082763671875,0.001220703125,0.781982421875,1760516674.9292495
17.115243902439026,21.714634146341467,19.282317073170734,-0.597412109375,0.06640625,0.7197265625,1760516675.044156
-15.750609756097562,23.604878048780492,-9.315243902439025,-0.669921875,0.0875244140625,0.7406005859375,1760516675.156084
-15.445731707317075,11.531707317073172,-10.473780487804879,-0.695556640625,0.07470703125,0.7103271484375,1760516675.2693052
4.432317073170732,-3.71219512195122,1.355487804878049,-0.6934814453125,0.0538330078125,0.72509765625,1760516675.3790784
-2.2750000000000004,-7.980487804878049,2.08719512195122,-0.6783447265625,0.036376953125,0.7021484375,1760516675.494977
-0.44573170731707323,-7.065853658536586,-1.2054878048780489,-0.674560546875,0.060791015625,0.7073974609375,1760516675.608142
-1.604268292682927,-11.029268292682927,-3.095731707317073,-0.6649169921875,0.06494140625,0.73486328125,1760516675.719338
-3.0067073170731713,-16.821951219512197,-1.754268292682927,-0.6336669921875,0.0390625,0.754150390625,1760516675.8316367
-3.677439024390244,-17.79756097560976,-4.620121951219512,-0.57763671875,0.0341796875,0.7420654296875,1760516675.951055
-1.9091463414634149,-9.870731707317074,-0.9615853658536586,-0.5782470703125,0.0140380859375,0.773193359375,1760516676.061939
-0.628658536585366,-7.431707317073171,-1.998170731707317,-0.59228515625,0.0042724609375,0.8267822265625,1760516676.1721885
-9.348170731707318,-3.7731707317073178,-3.9493902439024393,-0.57470703125,0.0,0.822021484375,1760516676.2873929
-11.177439024390244,0.3731707317073171,-9.010365853658538,-0.5738525390625,-0.0546875,0.8179931640625,1760516676.410265
-15.872560975609758,-1.3951219512195123,-1.9371951219512196,-0.555419921875,-0.049560546875,0.8114013671875,1760516676.520165
-9.165243902439025,2.202439024390244,-4.376219512195122,-0.556884765625,-0.0863037109375,0.7884521484375,1760516676.635255
-0.3237804878048781,4.092682926829269,0.07500000000000004,-0.5682373046875,-0.099853515625,0.8056640625,1760516676.7514064
5.407926829268293,7.32439024390244,2.2701219512195125,-0.5733642578125,-0.0865478515625,0.7969970703125,1760516676.8606503
3.334756097560976,9.031707317073172,2.4530487804878054,-0.5977783203125,-0.092041015625,0.8016357421875,1760516676.9718063
4.493292682926829,5.982926829268293,2.8798780487804883,-0.605712890625,-0.0645751953125,0.78564453125,1760516677.0829797
6.627439024390244,11.348780487804879,2.33109756097561,-0.6363525390625,-0.0826416015625,0.790283203125,1760516677.199651
12.846951219512196,11.897560975609757,6.111585365853659,-0.6522216796875,-0.010498046875,0.75390625,1760516677.3211703
44.67621951219513,16.10487804878049,10.014024390243902,-0.684326171875,0.0474853515625,0.7523193359375,1760516677.4387732
4.24939024390244,8.239024390243904,-1.327439024390244,-0.682373046875,0.0626220703125,0.73193359375,1760516677.550744
12.481097560975611,1.531707317073171,8.184756097560976,-0.6839599609375,0.0675048828125,0.7261962890625,1760516677.6629093
0.22499999999999998,-6.7,-0.8396341463414635,-0.6884765625,0.0738525390625,0.748779296875,1760516677.7769902
-3.5554878048780494,-15.114634146341464,-0.5347560975609756,-0.650634765625,0.0772705078125,0.739990234375,1760516677.887794
-3.1896341463414637,-27.309756097560978,-4.925,-0.6131591796875,0.0706787109375,0.7445068359375,1760516677.997238
-4.592073170731708,-8.163414634146342,-2.9128048780487803,-0.5950927734375,0.026123046875,0.7786865234375,1760516678.1110528
-21.726219512195122,3.726829268292683,-22.607926829268294,-0.60498046875,0.058349609375,0.8018798828125,1760516678.2267642
-6.482317073170733,-1.151219512195122,-4.010365853658537,-0.58203125,0.0233154296875,0.7762451171875,1760516678.3399565
6.261585365853659,1.104878048780488,2.2701219512195125,-0.5802001953125,0.0015869140625,0.7698974609375,1760516678.453008
12.968902439024392,5.434146341463415,9.221341463414634,-0.581787109375,-0.0281982421875,0.7677001953125,1760516678.5662367
23.639634146341464,9.702439024390245,15.928658536585369,-0.5931396484375,0.0361328125,0.7664794921875,1760516678.6810524
30.52987804878049,5.1902439024390254,21.66036585365854,-0.6260986328125,0.034912109375,0.783935546875,1760516678.7917597
17.542073170731708,2.3853658536585365,13.36768292682927,-0.6304931640625,0.0894775390625,0.7840576171875,1760516678.9028609
-8.982317073170732,-5.114634146341464,-9.498170731707319,-0.62939453125,0.0972900390625,0.7841796875,1760516679.0139325
-15.201829268292684,-21.090243902439028,-8.766463414634147,-0.59375,0.0626220703125,0.7611083984375,1760516679.1264699
-3.860365853658537,-8.773170731707317,-2.729878048780488,-0.5689697265625,0.0679931640625,0.8011474609375,1760516679.239404
-1.7871951219512199,0.25121951219512195,-4.376219512195122,-0.55224609375,0.06884765625,0.795166015625,1760516679.3535364
1.5664634146341463,6.165853658536586,1.2945121951219514,-0.5836181640625,0.05078125,0.79345703125,1760516679.4693851
-4.226219512195122,9.763414634146343,-5.778658536585366,-0.6185302734375,-0.008056640625,0.813720703125,1760516679.5803125
-9.8359756097561,-1.3341463414634147,-12.303048780487806,-0.615966796875,-0.0341796875,0.8355712890625,1760516679.6941588
0.7737804878048781,-4.626829268292683,-1.0835365853658536,-0.5831298828125,-0.02001953125,0.7979736328125,1760516679.8063111
-4.957926829268294,-0.6024390243902439,-4.559146341463415,-0.5841064453125,-0.0430908203125,0.810546875,1760516679.9161847
3.2128048780487806,8.848780487804879,-3.522560975609756,-0.603271484375,-0.0380859375,0.8089599609375,1760516680.026473
0.5298780487804878,6.287804878048782,-2.364024390243902,-0.61279296875,-0.0267333984375,0.7841796875,1760516680.1393166
1.8103658536585365,3.726829268292683,-0.5957317073170731,-0.642333984375,-0.025390625,0.808837890625,1760516680.2509065
3.0298780487804877,-5.541463414634147,-2.6689024390243903,-0.634765625,-0.01611328125,0.8199462890625,1760516680.3621256
-0.26280487804878055,-0.5414634146341464,-4.010365853658537,-0.55029296875,-0.0269775390625,0.756103515625,1760516680.4739091
4.554268292682927,7.812195121951221,3.9774390243902444,-0.6197509765625,-0.017578125,0.7867431640625,1760516680.5847778
-0.26280487804878055,5.921951219512196,5.014024390243903,-0.6458740234375,0.005615234375,0.7926025390625,1760516680.6958902
-1.1164634146341466,3.05609756097561,6.84329268292683,-0.60888671875,-0.0135498046875,0.768310546875,1760516680.8077364
-7.579878048780489,1.0439024390243905,5.379878048780489,-0.6024169921875,-0.0889892578125,0.7802734375,1760516680.9209275
-36.05548780487805,-2.1878048780487807,1.2335365853658538,-0.6126708984375,-0.05419921875,0.74658203125,1760516681.03168
-15.201829268292684,13.543902439024391,2.3920731707317078,-0.64306640625,-0.0928955078125,0.762451171875,1760516681.1419368
15.164024390243904,16.28780487804878,13.733536585365854,-0.65966796875,-0.0772705078125,0.749755859375,1760516681.2562807
11.322560975609758,19.885365853658538,-5.778658536585366,-0.6793212890625,-0.020751953125,0.7242431640625,1760516681.3699958
35.16402439024391,16.043902439024393,-5.717682926829268,-0.679443359375,0.0458984375,0.6881103515625,1760516681.4821477
19.371341463414634,16.897560975609757,-1.9371951219512196,-0.689208984375,0.0869140625,0.63525390625,1760516681.5966256
10.164024390243902,11.104878048780488,6.721341463414635,-0.734375,0.1236572265625,0.65576171875,1760516681.7119935
-0.628658536585366,-2.1878048780487807,1.5384146341463416,-0.7646484375,0.118896484375,0.6632080078125,1760516681.8226678
-7.945731707317074,-14.139024390243904,-14.620121951219515,-0.7408447265625,0.0784912109375,0.6580810546875,1760516681.935535
-24.653048780487808,-7.858536585365854,-20.41280487804878,-0.740478515625,0.0460205078125,0.7015380859375,1760516682.0449212
6.2006097560975615,-4.931707317073171,7.7579268292682935,-0.6983642578125,0.0369873046875,0.691650390625,1760516682.1572022
7.115243902439025,-7.980487804878049,10.80670731707317,-0.6917724609375,0.06396484375,0.6871337890625,1760516682.2722833
10.834756097560977,-0.9073170731707317,3.672560975609757,-0.689453125,0.0621337890625,0.711669921875,1760516682.3823128
10.164024390243902,-3.041463414634147,9.770121951219512,-0.68017578125,0.0836181640625,0.704833984375,1760516682.494783
4.920121951219513,-5.907317073170732,-4.498170731707317,-0.687255859375,0.0875244140625,0.72119140625,1760516682.6048663
5.468902439024391,-8.773170731707317,-11.815243902439025,-0.6385498046875,0.0888671875,0.722412109375,1760516682.7196467
-33.31158536585366,-19.74878048780488,2.5750000000000006,-0.6356201171875,0.017822265625,0.7421875,1760516682.8336513
1.7493902439024391,-4.443902439024391,-2.729878048780488,-0.6339111328125,-0.017333984375,0.78173828125,1760516682.9442556
19.371341463414634,-7.797560975609756,4.831097560975611,-0.6304931640625,-0.008544921875,0.8048095703125,1760516683.059588
2.725,-6.882926829268293,-9.010365853658538,-0.627685546875,0.0130615234375,0.7994384765625,1760516683.170726
1.9323170731707318,-6.639024390243903,5.562804878048781,-0.5751953125,0.055908203125,0.7740478515625,1760516683.2859163
0.5908536585365853,-2.5536585365853663,7.026219512195123,-0.5877685546875,0.06640625,0.813232421875,1760516683.4005136
3.456707317073171,-3.590243902439025,3.7335365853658544,-0.582763671875,0.08154296875,0.7894287109375,1760516683.5201976
22.7859756097561,27.934146341463418,30.86768292682927,-0.541015625,0.105224609375,0.7222900390625,1760516683.6302435
31.200609756097563,31.104878048780492,16.59939024390244,-0.683837890625,0.196533203125,0.7591552734375,1760516683.7398243
5.103048780487805,17.62926829268293,-4.985975609756098,-0.6900634765625,0.2373046875,0.7314453125,1760516683.8514035
4.798170731707318,14.519512195121953,-20.65670731707317,-0.7171630859375,0.27197265625,0.7054443359375,1760516683.963403
1.2615853658536584,-0.5414634146341464,-5.412804878048781,-0.696044921875,0.204833984375,0.702392578125,1760516684.0828662
48.57865853658537,2.81219512195122,6.59939024390244,-0.4888916015625,0.14794921875,0.6290283203125,1760516684.2099469
10.956707317073171,0.5560975609756099,14.34329268292683,-0.678955078125,0.2073974609375,0.684814453125,1760516684.322409
-16.29939024390244,-11.760975609756098,-40.71768292682927,-0.6978759765625,0.20361328125,0.719482421875,1760516684.434268
-56.238414634146345,-22.00487804878049,-41.083536585365856,-0.6707763671875,0.092529296875,0.6988525390625,1760516684.547819
-23.616463414634147,-14.565853658536586,-7.485975609756098,-0.711669921875,-0.0103759765625,0.4349365234375,1760516684.6578925
-10.81158536585366,-12.675609756097561,3.062804878048781,-0.6290283203125,-0.0670166015625,0.7493896484375,1760516684.7719512
-13.494512195121953,-10.72439024390244,-8.21768292682927,-0.645263671875,-0.1126708984375,0.7730712890625,1760516684.8821275
-7.640853658536586,-1.8219512195121952,-10.778658536585368,-0.61474609375,-0.0931396484375,0.77197265625,1760516684.9952784
-5.018902439024391,-0.05365853658536585,-6.144512195121951,-0.5831298828125,-0.098876953125,0.7381591796875,1760516685.1064558
-3.738414634146342,1.8975609756097562,-3.3396341463414636,-0.597412109375,-0.1376953125,0.7593994140625,1760516685.216544
5.895731707317074,5.55609756097561,1.2335365853658538,-0.6531982421875,-0.1136474609375,0.787109375,1760516685.3270535
-5.567682926829269,9.397560975609757,-17.546951219512195,-0.59765625,-0.1634521484375,0.7203369140625,1760516685.4419377
-0.3847560975609757,7.812195121951221,-9.254268292682928,-0.630126953125,-0.148681640625,0.752685546875,1760516685.5533519
7.359146341463415,-1.8829268292682928,10.257926829268293,-0.620849609375,-0.0960693359375,0.7581787109375,1760516685.6634064
10.225000000000001,-2.7365853658536587,9.09939024390244,-0.6224365234375,-0.1424560546875,0.730712890625,1760516685.7737
13.27378048780488,2.9341463414634146,21.233536585365858,-0.6156005859375,-0.0986328125,0.7412109375,1760516685.8871417
7.23719512195122,12.019512195121953,2.514024390243903,-0.5947265625,-0.0816650390625,0.7080078125,1760516686.0035336
3.5176829268292686,21.653658536585368,8.245731707317074,-0.6845703125,-0.02587890625,0.7454833984375,1760516686.114564
-0.5067073170731708,10.495121951219513,1.1725609756097561,-0.7110595703125,-0.0506591796875,0.7249755859375,1760516686.2285857
6.139634146341463,2.3853658536585365,3.672560975609757,-0.6937255859375,-0.0662841796875,0.690185546875,1760516686.343469
-2.2750000000000004,0.7390243902439025,-1.6323170731707317,-0.7010498046875,-0.0380859375,0.68310546875,1760516686.4587305
-2.8237804878048784,0.4951219512195123,-1.6323170731707317,-0.70947265625,-0.06591796875,0.6842041015625,1760516686.5705147
-9.348170731707318,-15.114634146341464,-6.388414634146342,-0.693359375,-0.037109375,0.682861328125,1760516686.6831563
-1.604268292682927,1.4707317073170734,20.806707317073172,-0.7244873046875,-0.040283203125,0.7088623046875,1760516686.7929778
-13.79939024390244,-8.651219512195123,54.22134146341464,-0.810302734375,0.1141357421875,0.745849609375,1760516686.9069037
-6.177439024390244,12.08048780487805,18.916463414634148,-0.7012939453125,-0.0035400390625,0.688232421875,1760516687.0189943
-7.8847560975609765,9.702439024390245,33.550609756097565,-0.71533203125,-0.0133056640625,0.6732177734375,1760516687.1310468
-29.28719512195122,16.34878048780488,11.111585365853658,-0.7000732421875,0.00048828125,0.64404296875,1760516687.2459204
-10.81158536585366,4.82439024390244,7.7579268292682935,-0.76220703125,0.01025390625,0.6627197265625,1760516687.3638062
5.529878048780488,3.9097560975609764,-8.644512195121953,-0.7186279296875,-0.0413818359375,0.6373291015625,1760516687.476767
10.529878048780489,22.812195121951223,4.2213414634146345,-0.761474609375,0.0023193359375,0.63232421875,1760516687.5889492
11.688414634146342,15.434146341463416,-19.681097560975612,-0.7606201171875,-0.087158203125,0.6068115234375,1760516687.7008731
14.859146341463417,11.043902439024391,-7.485975609756098,-0.7806396484375,-0.0462646484375,0.596435546875,1760516687.8134258
8.700609756097561,11.409756097560978,-32.485975609756096,-0.8314208984375,-0.0682373046875,0.57763671875,1760516687.9308627
46.26158536585367,-1.0292682926829269,-6.022560975609756,-0.782470703125,-0.035888671875,0.5706787109375,1760516688.0428867
27.115243902439026,-7.858536585365854,-11.266463414634147,-0.771728515625,-0.0062255859375,0.5491943359375,1760516688.1540296
14.73719512195122,-5.602439024390244,-12.059146341463416,-0.7225341796875,-0.046875,0.5736083984375,1760516688.2650325
25.712804878048782,-12.553658536585367,-8.827439024390245,-0.811767578125,0.0130615234375,0.596923828125,1760516688.3748615
1.9323170731707318,-11.882926829268293,11.416463414634146,-0.755859375,0.028564453125,0.6434326171875,1760516688.4940393
-20.14085365853659,-22.187804878048784,8.428658536585367,-0.7393798828125,-0.0341796875,0.6522216796875,1760516688.6101274
-15.262804878048781,-17.492682926829268,-4.8030487804878055,-0.734619140625,-0.0556640625,0.6976318359375,1760516688.7206492
6.139634146341463,-2.980487804878049,-24.925,-0.7197265625,-0.044677734375,0.6942138671875,1760516688.8328857
4.615243902439024,0.9829268292682928,-4.376219512195122,-0.6947021484375,-0.0283203125,0.702880859375,1760516688.944842
0.8347560975609757,-2.1268292682926835,11.721341463414635,-0.68115234375,-0.012451171875,0.696044921875,1760516689.0586557
-8.860365853658537,-6.151219512195122,-7.242073170731707,-0.7100830078125,-0.009033203125,0.73095703125,1760516689.1717622
0.28597560975609754,-1.0292682926829269,-1.1445121951219512,-0.6431884765625,-0.00927734375,0.703857421875,1760516689.2838452
6.261585365853659,9.214634146341464,1.904268292682927,-0.6756591796875,-0.0460205078125,0.688720703125,1760516689.3949857
1.1396341463414634,4.641463414634147,-0.6567073170731708,-0.7032470703125,-0.0689697265625,0.708740234375,1760516689.5123062
-1.604268292682927,-1.3341463414634147,-4.742073170731707,-0.6820068359375,-0.0299072265625,0.696044921875,1760516689.6248555
-1.9701219512195125,-2.065853658536586,-8.522560975609757,-0.6912841796875,-0.0234375,0.6943359375,1760516689.7396007
2.9689024390243905,-4.626829268292683,3.916463414634147,-0.7000732421875,-0.0140380859375,0.714599609375,1760516689.8494556
8.883536585365855,-4.931707317073171,11.416463414634146,-0.6966552734375,-0.0120849609375,0.72412109375,1760516689.9642668
0.22499999999999998,-1.7000000000000002,-2.7908536585365855,-0.712646484375,-0.0018310546875,0.73876953125,1760516690.0752752
-1.1774390243902442,-2.3707317073170735,-6.510365853658537,-0.6744384765625,-0.0174560546875,0.730224609375,1760516690.1865735
0.3469512195121951,-1.7609756097560976,1.0506097560975611,-0.642333984375,-0.0068359375,0.7138671875,1760516690.2988532
1.7493902439024391,-14.931707317073172,0.501829268292683,-0.66162109375,0.0023193359375,0.7239990234375,1760516690.4120705
0.10304878048780486,4.2146341463414645,-4.132317073170732,-0.6483154296875,-0.000244140625,0.7276611328125,1760516690.521253
1.0786585365853658,1.4097560975609758,-2.0591463414634146,-0.6822509765625,-0.0281982421875,0.718017578125,1760516690.6373987
0.46890243902439027,1.7146341463414636,-0.10792682926829267,-0.691162109375,-0.00439453125,0.737548828125,1760516690.7523682
5.529878048780488,-1.7000000000000002,8.611585365853658,-0.671142578125,0.0023193359375,0.7196044921875,1760516690.8669124
1.5664634146341463,-1.3951219512195123,-14.620121951219515,-0.672607421875,0.00341796875,0.7225341796875,1760516690.9775977
-0.628658536585366,2.5682926829268293,-5.351829268292684,-0.6676025390625,0.02490234375,0.71728515625,1760516691.0950513
4.493292682926829,7.080487804878049,4.2213414634146345,-0.6502685546875,0.0,0.6951904296875,1760516691.2055492
0.16402439024390242,13.60487804878049,-5.107926829268293,-0.7315673828125,0.0125732421875,0.7166748046875,1760516691.3217492
1.5054878048780487,11.226829268292684,1.0506097560975611,-0.7088623046875,0.0108642578125,0.669677734375,1760516691.4383488
-3.067682926829269,9.641463414634147,-4.43719512195122,-0.744384765625,0.025390625,0.6806640625,1760516691.5531247
3.700609756097561,-2.858536585365854,6.35548780487805,-0.7557373046875,0.009033203125,0.6884765625,1760516691.6639209
14.00548780487805,-7.004878048780488,7.7579268292682935,-0.7003173828125,-0.031005859375,0.6524658203125,1760516691.7781417
20.042073170731708,-4.078048780487805,-0.16890243902439023,-0.6959228515625,0.0423583984375,0.640869140625,1760516691.892391
6.627439024390244,1.8975609756097562,-7.8518292682926845,-0.743896484375,0.0804443359375,0.704345703125,1760516692.0165129
-2.0920731707317075,9.33658536585366,-27.97378048780488,-0.67578125,-0.01708984375,0.645751953125,1760516692.1263719
-6.116463414634147,1.7146341463414636,-24.803048780487806,-0.7203369140625,-0.03369140625,0.6519775390625,1760516692.2364843
15.225000000000001,-1.578048780487805,-2.18109756097561,-0.7491455078125,-0.072509765625,0.6640625,1760516692.3468978
-0.44573170731707323,-7.004878048780488,15.684756097560978,-0.75634765625,-0.07275390625,0.6741943359375,1760516692.4607406
3.9445121951219515,-9.93170731707317,23.245731707317077,-0.7047119140625,0.024169921875,0.6568603515625,1760516692.5722194
-4.53109756097561,-1.0902439024390245,13.550609756097561,-0.7301025390625,-0.051513671875,0.674560546875,1760516692.682067
-13.006707317073172,-0.9073170731707317,-1.0835365853658536,-0.7132568359375,-0.03759765625,0.6748046875,1760516692.7966282
-13.128658536585368,0.19024390243902442,6.050609756097562,-0.7205810546875,-0.068115234375,0.6873779296875,1760516692.9099863
-16.665243902439027,-0.05365853658536585,28.67256097560976,-0.6728515625,-0.0469970703125,0.6619873046875,1760516693.0247545
-11.726219512195122,10.312195121951222,0.8676829268292684,-0.7208251953125,-0.0411376953125,0.6802978515625,1760516693.1399283
-3.3725609756097565,3.360975609756098,2.4530487804878054,-0.744140625,-0.0386962890625,0.6766357421875,1760516693.2543063
-4.896951219512196,0.19024390243902442,9.770121951219512,-0.7044677734375,-0.0589599609375,0.6470947265625,1760516693.3690207
0.7737804878048781,1.4097560975609758,-2.7908536585365855,-0.751220703125,-0.0498046875,0.6688232421875,1760516693.480115
-0.6896341463414635,-0.8463414634146341,-5.534756097560976,-0.7447509765625,-0.0205078125,0.662841796875,1760516693.5932755
-4.3481707317073175,1.7756097560975612,-10.046951219512197,-0.720703125,-0.03564453125,0.6513671875,1760516693.7070322
2.603048780487805,-1.7000000000000002,-8.766463414634147,-0.72314453125,-0.062744140625,0.662109375,1760516693.8206956
27.35914634146342,-1.7609756097560976,-21.083536585365856,-0.6885986328125,-0.0284423828125,0.6456298828125,1760516693.9351242
48.090853658536595,-10.175609756097561,-16.388414634146343,-0.7322998046875,-0.05908203125,0.65625,1760516694.05001
-10.384756097560977,-12.73658536585366,-6.876219512195123,-0.6861572265625,-0.0697021484375,0.6956787109375,1760516694.1642659
45.22500000000001,11.165853658536587,0.4408536585365854,-0.723388671875,-0.0135498046875,0.7186279296875,1760516694.27371
24.371341463414637,-15.663414634146342,-25.534756097560976,-0.6982421875,-0.035400390625,0.6922607421875,1760516694.3838751
-6.482317073170733,-51.273170731707324,31.355487804878052,-0.6195068359375,-0.0404052734375,0.767333984375,1760516694.4942555
11.261585365853659,-10.785365853658536,-6.388414634146342,-0.6083984375,-0.1002197265625,0.808837890625,1760516694.604986
15.77378048780488,-2.6756097560975616,5.989634146341464,-0.5966796875,-0.018310546875,0.78076171875,1760516694.7174504
6.6884146341463415,-3.163414634146342,7.270121951219513,-0.56005859375,0.0439453125,0.75830078125,1760516694.8365986
-5.933536585365855,6.409756097560977,1.9652439024390247,-0.5958251953125,0.029052734375,0.77001953125,1760516694.9523723
-94.775,19.946341463414637,1.0506097560975611,-0.6173095703125,-0.0640869140625,0.7781982421875,1760516695.062046
-105.32378048780488,1.5926829268292686,23.123780487804883,-0.6387939453125,-0.2315673828125,0.6890869140625,1760516695.1756032
4.798170731707318,-7.004878048780488,42.02621951219513,-0.6427001953125,-0.241943359375,0.70166015625,1760516695.2857027
-22.884756097560977,-16.578048780487805,71.47743902439025,-0.638427734375,-0.0716552734375,0.7041015625,1760516695.4007468
29.615243902439026,-6.7,30.562804878048784,-0.689453125,-0.1978759765625,0.7196044921875,1760516695.512303
17.907926829268295,1.1658536585365855,6.35548780487805,-0.6590576171875,-0.0926513671875,0.7442626953125,1760516695.6254048
26.627439024390245,-7.492682926829269,25.135975609756102,-0.6768798828125,-0.018798828125,0.7464599609375,1760516695.7385197
-7.701829268292684,-6.943902439024391,19.709146341463416,-0.667724609375,0.0521240234375,0.7972412109375,1760516695.848494
-7.640853658536586,-2.3707317073170735,2.5750000000000006,-0.67724609375,-0.0426025390625,0.74462890625,1760516695.9595885
11.871341463414636,11.531707317073172,-16.99817073170732,-0.648193359375,-0.0013427734375,0.733642578125,1760516696.0716393
38.94451219512196,21.043902439024393,-32.425000000000004,-0.677490234375,-0.0548095703125,0.734619140625,1760516696.1819732
24.493292682926832,15.434146341463416,-24.559146341463414,-0.677001953125,-0.015869140625,0.710693359375,1760516696.2959757
1.627439024390244,10.251219512195123,-30.168902439024393,-0.731201171875,-0.0513916015625,0.7108154296875,1760516696.4089742
22.603048780487807,15.921951219512197,-47.85182926829268,-0.749267578125,-0.0789794921875,0.7093505859375,1760516696.523748
36.68841463414635,0.5560975609756099,-58.461585365853665,-0.7037353515625,-0.0643310546875,0.6783447265625,1760516696.6346688
93.33475609756098,3.2390243902439027,1.5384146341463416,-0.7320556640625,-0.020751953125,0.743408203125,1760516696.7491417
8.761585365853659,4.763414634146343,-18.400609756097563,-0.74755859375,-0.0303955078125,0.715576171875,1760516696.8611372
4.066463414634146,2.2634146341463417,0.07500000000000004,-0.697509765625,-0.04052734375,0.6856689453125,1760516696.9787545
0.8347560975609757,0.4951219512195123,0.1359756097560976,-0.736328125,-0.048583984375,0.700439453125,1760516697.0904508
10.164024390243902,3.7878048780487807,6.660365853658537,-0.703125,0.00830078125,0.6905517578125,1760516697.2026286
0.04207317073170729,1.104878048780488,4.831097560975611,-0.7257080078125,0.0213623046875,0.6776123046875,1760516697.3150275
-27.884756097560977,2.5682926829268293,26.41646341463415,-0.7412109375,0.0279541015625,0.6793212890625,1760516697.4274948
-35.079878048780486,-4.68780487804878,16.59939024390244,-0.7080078125,-0.0067138671875,0.6834716796875,1760516697.5439432
-22.82378048780488,1.7146341463414636,-3.9493902439024393,-0.717041015625,-0.0308837890625,0.68505859375,1760516697.6543448
-0.018902439024390275,5.495121951219513,5.075000000000001,-0.7244873046875,-0.0177001953125,0.6754150390625,1760516697.765533
16.566463414634146,0.31219512195121957,3.7945121951219516,-0.7520751953125,-0.0108642578125,0.708984375,1760516697.8771813
-4.165243902439025,-8.651219512195123,-7.607926829268293,-0.734619140625,-0.0452880859375,0.7008056640625,1760516697.9887137
9.49329268292683,-22.73658536585366,19.64817073170732,-0.6900634765625,0.01806640625,0.70703125,1760516698.1099477
-7.518902439024391,-21.212195121951222,-9.559146341463416,-0.6290283203125,0.033447265625,0.71826171875,1760516698.2219296
-2.762804878048781,-10.236585365853658,-2.303048780487805,-0.5960693359375,0.0228271484375,0.7440185546875,1760516698.3367157
-14.409146341463416,-25.907317073170734,3.9774390243902444,-0.6348876953125,0.0257568359375,0.7225341796875,1760516698.450012
13.212804878048782,18.78780487804878,-8.278658536585366,-0.6043701171875,0.0198974609375,0.7093505859375,1760516698.5616758
-6.665243902439025,24.824390243902442,-6.083536585365854,-0.7154541015625,0.0152587890625,0.7403564453125,1760516698.6741068
-6.238414634146342,15.251219512195124,1.355487804878049,-0.7181396484375,-0.0045166015625,0.693115234375,1760516698.786039
-3.616463414634147,9.33658536585366,-2.4859756097560974,-0.7119140625,-0.0391845703125,0.6573486328125,1760516698.8976076
-3.1896341463414637,5.6780487804878055,-8.827439024390245,-0.781005859375,-0.0322265625,0.693603515625,1760516699.00878
15.834756097560977,-2.309756097560976,-11.266463414634147,-0.7476806640625,-0.0220947265625,0.676513671875,1760516699.1186748
21.56646341463415,-3.2243902439024397,-30.900609756097563,-0.7275390625,0.0067138671875,0.6671142578125,1760516699.2328641
3.151829268292683,-4.321951219512195,-3.1567073170731708,-0.71484375,-0.033203125,0.6710205078125,1760516699.348931
2.8469512195121953,0.06829268292682929,-2.303048780487805,-0.685546875,-0.0093994140625,0.651611328125,1760516699.461203
-3.738414634146342,8.604878048780488,7.331097560975611,-0.755126953125,-0.02099609375,0.70458984375,1760516699.572473
-5.811585365853659,0.678048780487805,35.44085365853659,-0.69873046875,-0.019287109375,0.666259765625,1760516699.6843941
-10.079878048780488,-3.041463414634147,20.562804878048784,-0.765380859375,-0.010498046875,0.6737060546875,1760516699.7982845
-16.421341463414635,-0.3585365853658537,15.440853658536586,-0.746337890625,0.0286865234375,0.670654296875,1760516699.9107378
-13.55548780487805,-0.724390243902439,1.0506097560975611,-0.7222900390625,0.011474609375,0.6708984375,1760516700.023415
-4.957926829268294,-1.3951219512195123,-0.7786585365853659,-0.7034912109375,0.0352783203125,0.6671142578125,1760516700.1361969
-18.189634146341465,-4.017073170731708,-2.120121951219512,-0.7247314453125,-0.004638671875,0.684326171875,1760516700.2485824
-42.2140243902439,-10.663414634146342,-15.595731707317075,-0.6739501953125,-0.0335693359375,0.6478271484375,1760516700.3652494
-6.970121951219513,15.678048780487806,-25.961585365853658,-0.6937255859375,-0.060791015625,0.6767578125,1760516700.4782047
34.432317073170736,3.8487804878048784,12.696951219512195,-0.65625,-0.103759765625,0.675537109375,1760516700.5931983
-0.20182926829268297,1.2878048780487807,25.318902439024395,-0.74462890625,-0.0352783203125,0.69970703125,1760516700.706203
0.5908536585365853,31.592682926829273,15.196951219512195,-0.730224609375,0.0062255859375,0.6768798828125,1760516700.8195434
-8.006707317073172,-0.8463414634146341,31.233536585365858,-0.7177734375,0.0157470703125,0.65478515625,1760516700.9296613
-17.03109756097561,3.1170731707317074,15.745731707317075,-0.8043212890625,-0.0841064453125,0.6773681640625,1760516701.0441117
-19.470121951219515,0.678048780487805,21.843292682926833,-0.7301025390625,-0.0194091796875,0.6578369140625,1760516701.1535165
8.578658536585367,-30.72439024390244,72.8798780487805,-0.5428466796875,0.50439453125,0.445556640625,1760516701.2701778
-52.09207317073171,-8.102439024390245,14.892073170731708,-0.7635498046875,-0.0172119140625,0.7696533203125,1760516701.3859415
36.20060975609757,-7.858536585365854,18.61158536585366,-0.699951171875,-0.1363525390625,0.6656494140625,1760516701.4956567
-22.64085365853659,-5.724390243902439,12.514024390243902,-0.687255859375,-0.098876953125,0.6829833984375,1760516701.60698
29.06646341463415,-4.139024390243902,18.61158536585366,-0.677734375,-0.0565185546875,0.7213134765625,1760516701.7179449
3.2128048780487806,-1.0902439024390245,16.90426829268293,-0.662841796875,-0.0374755859375,0.6943359375,1760516701.830702
-36.84817073170732,2.9341463414634146,7.696951219512196,-0.7105712890625,-0.0670166015625,0.6922607421875,1760516701.9399004
24.615243902439026,10.982926829268294,-8.94939024390244,-0.66162109375,-0.0723876953125,0.7193603515625,1760516702.0517557
8.029878048780489,1.2268292682926831,-7.607926829268293,-0.6881103515625,-0.0531005859375,0.7047119140625,1760516702.162139
120.4689024390244,33.60487804878049,-99.98597560975611,-0.70947265625,-0.024169921875,0.6820068359375,1760516702.2731645
88.94451219512196,12.995121951219513,-57.5469512195122,-0.7708740234375,-0.019775390625,0.6494140625,1760516702.389447
65.10304878048781,6.653658536585366,-60.16890243902439,-0.738525390625,0.0345458984375,0.631591796875,1760516702.5090735
63.45670731707318,4.580487804878049,-13.034756097560978,-0.767333984375,0.0179443359375,0.6553955078125,1760516702.621481
21.383536585365857,-4.809756097560975,-21.327439024390245,-0.7109375,0.1197509765625,0.6075439453125,1760516702.7325149
-10.201829268292684,2.080487804878049,8.794512195121952,-0.7711181640625,0.10595703125,0.6312255859375,1760516702.843976
4.615243902439024,6.470731707317074,0.6237804878048782,-0.728515625,0.0870361328125,0.5941162109375,1760516702.9557667
0.8957317073170732,19.885365853658538,16.721341463414635,-0.7760009765625,0.15380859375,0.5675048828125,1760516703.0740795
-29.59207317073171,17.62926829268293,5.318902439024391,-0.7579345703125,0.1287841796875,0.53662109375,1760516703.1842937
-7.8847560975609765,16.470731707317075,-1.2664634146341465,-0.81884765625,0.1190185546875,0.55078125,1760516703.2955039
-1.7262195121951223,9.031707317073172,15.928658536585369,-0.8360595703125,0.0892333984375,0.5308837890625,1760516703.4061518
-0.628658536585366,-3.4682926829268297,4.099390243902439,-0.836669921875,0.0999755859375,0.5299072265625,1760516703.5206757
-1.604268292682927,-9.870731707317074,-2.364024390243902,-0.8045654296875,0.1094970703125,0.5240478515625,1760516703.629867
-2.9457317073170737,-13.407317073170733,-0.2298780487804878,-0.7750244140625,0.1240234375,0.536376953125,1760516703.7412639
-1.6652439024390246,-12.065853658536586,-2.6079268292682927,-0.8319091796875,0.1334228515625,0.5810546875,1760516703.8536017
-1.1774390243902442,-7.126829268292683,-3.7664634146341465,-0.8023681640625,0.0721435546875,0.586669921875,1760516703.9688883
-3.0067073170731713,-9.93170731707317,2.33109756097561,-0.7977294921875,0.0748291015625,0.605224609375,1760516704.0801406
-0.1408536585365854,-6.029268292682927,1.4164634146341466,-0.7630615234375,0.1134033203125,0.6163330078125,1760516704.192611
-0.3847560975609757,-4.321951219512195,-3.8884146341463417,-0.765380859375,0.0924072265625,0.6212158203125,1760516704.3029654
-4.04329268292683,-9.809756097560976,-2.9128048780487803,-0.7518310546875,0.1090087890625,0.6365966796875,1760516704.4163659
-2.457926829268293,-23.834146341463416,10.56280487804878,-0.70751953125,0.116455078125,0.653564453125,1760516704.5316467
-1.4213414634146344,-29.01707317073171,-25.71768292682927,-0.735107421875,0.0753173828125,0.7071533203125,1760516704.6419373
-7.396951219512196,-29.56585365853659,-6.144512195121951,-0.6513671875,0.0665283203125,0.7098388671875,1760516704.751941
-2.2750000000000004,-18.163414634146342,-22.72987804878049,-0.64501953125,0.034912109375,0.7620849609375,1760516704.860952
-7.518902439024391,-17.492682926829268,8.611585365853658,-0.5987548828125,0.0372314453125,0.761474609375,1760516704.9726756
-2.3969512195121956,-2.5536585365853663,-3.9493902439024393,-0.5660400390625,0.0111083984375,0.7633056640625,1760516705.0886738
-3.2506097560975613,3.7878048780487807,-8.94939024390244,-0.594970703125,-0.00341796875,0.7899169921875,1760516705.202763
0.7737804878048781,1.7756097560975612,-1.449390243902439,-0.6029052734375,-0.0364990234375,0.8028564453125,1760516705.3125176
11.01768292682927,14.885365853658538,39.46524390243903,-0.6007080078125,0.005615234375,0.7933349609375,1760516705.4293
15.712804878048782,13.726829268292684,19.465243902439028,-0.6124267578125,0.0701904296875,0.7596435546875,1760516705.5446327
-4.104268292682927,22.56829268292683,-2.546951219512195,-0.6854248046875,0.0369873046875,0.734619140625,1760516705.6574802
5.956707317073171,21.897560975609757,10.62378048780488,-0.708251953125,0.076171875,0.7298583984375,1760516705.7741516
-4.53109756097561,8.665853658536586,7.08719512195122,-0.772216796875,0.0303955078125,0.6978759765625,1760516705.885616
2.176219512195122,9.33658536585366,4.34329268292683,-0.6820068359375,0.08447265625,0.668212890625,1760516706.004144
4.371341463414635,13.909756097560978,6.35548780487805,-0.7176513671875,0.0487060546875,0.670166015625,1760516706.114084
1.200609756097561,5.6780487804878055,-2.6689024390243903,-0.7353515625,0.0457763671875,0.66357421875,1760516706.227117
2.7859756097560977,-5.602439024390244,-1.1445121951219512,-0.744873046875,0.06201171875,0.6583251953125,1760516706.3373501
15.285975609756099,-5.663414634146342,7.696951219512196,-0.7293701171875,0.0552978515625,0.6439208984375,1760516706.458976
21.07865853658537,-1.8219512195121952,17.39207317073171,-0.708740234375,0.1439208984375,0.64794921875,1760516706.5708785
1.9932926829268294,-8.163414634146342,-32.607926829268294,-0.7274169921875,0.168212890625,0.6617431640625,1760516706.6834607
-2.579878048780488,-12.43170731707317,-3.4615853658536584,-0.722900390625,0.1280517578125,0.662841796875,1760516706.7958326
-7.275,-3.9560975609756097,-50.29085365853659,-0.5572509765625,-0.07666015625,0.715087890625,1760516706.9077957
-26.78719512195122,-1.578048780487805,-28.21768292682927,-0.701416015625,-0.00732421875,0.6827392578125,1760516707.0266805
-14.04329268292683,-1.3951219512195123,-15.778658536585366,-0.6572265625,-0.015380859375,0.6790771484375,1760516707.139542
2.4810975609756096,1.4707317073170734,30.92865853658537,-0.7203369140625,-0.032470703125,0.67333984375,1760516707.2579641
6.322560975609757,7.446341463414635,11.721341463414635,-0.70751953125,-0.027099609375,0.6737060546875,1760516707.3743224
12.420121951219514,5.55609756097561,12.026219512195123,-0.7349853515625,0.0323486328125,0.683349609375,1760516707.4858782
30.590853658536588,1.4097560975609758,30.86768292682927,-0.709716796875,0.0491943359375,0.669189453125,1760516707.595304
24.73719512195122,-0.11463414634146342,16.843292682926833,-0.73486328125,0.117919921875,0.67529296875,1760516707.705957
20.712804878048782,-7.3707317073170735,15.806707317073172,-0.723388671875,0.1612548828125,0.66650390625,1760516707.816077
2.176219512195122,-13.95609756097561,8.794512195121952,-0.682373046875,0.2186279296875,0.67041015625,1760516707.9294987
-36.78719512195122,0.19024390243902442,-33.46158536585366,-0.6947021484375,0.1612548828125,0.7064208984375,1760516708.0438504
-16.78719512195122,-7.187804878048781,-19.254268292682926,-0.66748046875,0.121337890625,0.7088623046875,1760516708.154882
-10.384756097560977,-16.273170731707317,-9.010365853658538,-0.65478515625,0.0672607421875,0.7100830078125,1760516708.2688997
-15.384756097560977,-10.114634146341464,-27.425,-0.62451171875,0.045166015625,0.719970703125,1760516708.381236
-15.01890243902439,-7.553658536585366,-20.16890243902439,-0.59765625,-0.0162353515625,0.7412109375,1760516708.4988515
-17.82378048780488,-2.6756097560975616,-8.46158536585366,-0.6246337890625,-0.035888671875,0.757568359375,1760516708.6085825
-3.311585365853659,-7.919512195121952,-9.864024390243904,-0.595458984375,-0.119873046875,0.7757568359375,1760516708.7228062
3.9445121951219515,-6.273170731707317,-8.70548780487805,-0.5955810546875,-0.0889892578125,0.76904296875,1760516708.8332963
12.115243902439026,-2.7365853658536587,1.2335365853658538,-0.5791015625,-0.0966796875,0.7718505859375,1760516708.9438186
15.956707317073173,2.9341463414634146,0.7457317073170733,-0.5941162109375,-0.0972900390625,0.7840576171875,1760516709.0576823
8.578658536585367,7.751219512195123,11.050609756097561,-0.581787109375,-0.0616455078125,0.75146484375,1760516709.173234
7.23719512195122,33.72682926829268,-15.412804878048782,-0.6597900390625,-0.0526123046875,0.7403564453125,1760516709.2869625
8.822560975609758,24.702439024390248,6.233536585365854,-0.6922607421875,-0.0108642578125,0.728759765625,1760516709.399018
13.883536585365855,17.690243902439025,19.09939024390244,-0.6632080078125,-0.0050048828125,0.679931640625,1760516709.5149553
2.359146341463415,19.64146341463415,10.989634146341464,-0.7769775390625,0.04296875,0.687255859375,1760516709.6268442
-34.043292682926825,2.81219512195122,-29.010365853658538,-0.737548828125,0.0029296875,0.66357421875,1760516709.7407057
-3.738414634146342,3.421951219512195,1.904268292682927,-0.8004150390625,0.0311279296875,0.67919921875,1760516709.852888
0.3469512195121951,-3.407317073170732,10.135975609756098,-0.72705078125,0.021728515625,0.647216796875,1760516709.9631867
-1.5432926829268296,-5.724390243902439,9.953048780487805,-0.7493896484375,0.0103759765625,0.6737060546875,1760516710.0766554
-8.79939024390244,-6.3341463414634145,-2.9128048780487803,-0.75927734375,0.0504150390625,0.678955078125,1760516710.1923923
-9.653048780487806,-7.126829268292683,0.928658536585366,-0.745849609375,0.0621337890625,0.7032470703125,1760516710.3101041
-3.738414634146342,-6.639024390243903,4.648170731707317,-0.7269287109375,0.0535888671875,0.7103271484375,1760516710.4202387
-2.3969512195121956,-14.565853658536586,2.6969512195121954,-0.7159423828125,0.01611328125,0.7154541015625,1760516710.5346506
-6.665243902439025,-14.687804878048782,-7.120121951219512,-0.63720703125,0.0264892578125,0.705078125,1760516710.6492233
-1.055487804878049,-1.8829268292682928,-5.778658536585366,-0.6617431640625,-0.0155029296875,0.732421875,1760516710.760086
2.9689024390243905,1.3487804878048781,-9.559146341463416,-0.61669921875,0.010986328125,0.729248046875,1760516710.8714468
19.859146341463415,8.604878048780488,-19.803048780487806,-0.6806640625,0.0093994140625,0.7506103515625,1760516710.9870095
28.51768292682927,8.543902439024391,-43.33963414634147,-0.658447265625,0.0108642578125,0.721923828125,1760516711.1019626
8.700609756097561,1.5926829268292686,-13.70548780487805,-0.6917724609375,0.00537109375,0.7333984375,1760516711.2121964
9.188414634146342,7.080487804878049,37.6969512195122,-0.6951904296875,-0.0086669921875,0.7318115234375,1760516711.3260634
1.0786585365853658,13.909756097560978,5.562804878048781,-0.7454833984375,0.0628662109375,0.6822509765625,1760516711.4365594
-0.018902439024390275,27.87317073170732,33.79451219512195,-0.833740234375,0.070556640625,0.6820068359375,1760516711.5519829
4.310365853658537,9.153658536585366,0.501829268292683,-0.780029296875,0.105224609375,0.651611328125,1760516711.6634984
5.590853658536585,8.239024390243904,8.367682926829268,-0.75146484375,0.0694580078125,0.6165771484375,1760516711.7785683
3.456707317073171,4.519512195121952,-8.522560975609757,-0.797607421875,0.16796875,0.65185546875,1760516711.8939192
-0.018902439024390275,-1.273170731707317,-7.66890243902439,-0.7662353515625,0.1243896484375,0.6099853515625,1760516712.0039566
-5.018902439024391,5.800000000000001,-13.278658536585368,-0.7508544921875,0.0958251953125,0.6015625,1760516712.1202672
-6.238414634146342,1.4097560975609758,-10.107926829268294,-0.771728515625,0.072998046875,0.6046142578125,1760516712.2309096
-0.018902439024390275,0.5560975609756099,-0.3518292682926829,-0.7796630859375,0.0950927734375,0.593505859375,1760516712.3441935
6.6884146341463415,-0.6024390243902439,12.08719512195122,-0.769775390625,0.1041259765625,0.6004638671875,1760516712.4550283
1.9932926829268294,0.3731707317073171,-6.815243902439025,-0.781005859375,0.10546875,0.606201171875,1760516712.566185
0.28597560975609754,1.9585365853658536,-1.8762195121951222,-0.7740478515625,0.0987548828125,0.608642578125,1760516712.6768541
4.859146341463415,0.4341463414634147,1.4164634146341466,-0.76904296875,0.0809326171875,0.6058349609375,1760516712.7892568
1.8103658536585365,1.4707317073170734,-9.315243902439025,-0.77099609375,0.091064453125,0.5953369140625,1760516712.898991
-2.518902439024391,0.4951219512195123,-8.156707317073172,-0.7919921875,0.0933837890625,0.5968017578125,1760516713.0098777
3.700609756097561,-0.6024390243902439,6.904268292682928,-0.7740478515625,0.08349609375,0.5941162109375,1760516713.1219916
0.8957317073170732,0.3731707317073171,0.501829268292683,-0.775146484375,0.0919189453125,0.6021728515625,1760516713.2381108
2.2371951219512196,0.31219512195121957,-14.315243902439025,-0.7802734375,0.1029052734375,0.6009521484375,1760516713.348816
-3.7993902439024394,2.0195121951219512,-8.034756097560978,-0.806396484375,0.0941162109375,0.6136474609375,1760516713.4607239
-0.1408536585365854,0.3731707317073171,-4.985975609756098,-0.7930908203125,0.0855712890625,0.5948486328125,1760516713.5701272
-0.20182926829268297,0.5560975609756099,-0.4737804878048781,-0.767822265625,0.076904296875,0.5906982421875,1760516713.6823378
1.9323170731707318,1.2268292682926831,-0.0469512195121951,-0.78857421875,0.0909423828125,0.6015625,1760516713.7944367
2.603048780487805,-1.0902439024390245,-2.303048780487805,-0.78955078125,0.086669921875,0.601318359375,1760516713.9038217
1.9932926829268294,0.8000000000000002,6.233536585365854,-0.75390625,0.0919189453125,0.593505859375,1760516714.0170734
-2.153048780487805,0.12926829268292686,-13.766463414634147,-0.7835693359375,0.0914306640625,0.60791015625,1760516714.1303163
0.5908536585365853,-0.23658536585365855,2.5750000000000006,-0.774658203125,0.091796875,0.593017578125,1760516714.2412817
-2.579878048780488,-1.0902439024390245,18.428658536585367,-0.7802734375,0.0418701171875,0.6114501953125,1760516714.3531797
-4.592073170731708,-0.724390243902439,11.416463414634146,-0.8052978515625,0.149169921875,0.6177978515625,1760516714.462663
1.627439024390244,-1.6390243902439026,8.06280487804878,-0.8057861328125,0.1341552734375,0.6116943359375,1760516714.5751595
5.042073170731707,-4.68780487804878,-0.2298780487804878,-0.771484375,0.1202392578125,0.6044921875,1760516714.6882856
-1.1774390243902442,-7.614634146341464,-10.839634146341465,-0.75927734375,0.1063232421875,0.6181640625,1760516714.7979774
2.5420731707317072,-13.163414634146342,-1.6323170731707317,-0.778076171875,0.151611328125,0.6395263671875,1760516714.911889
-3.616463414634147,-8.590243902439024,-6.93719512195122,-0.7113037109375,0.100341796875,0.638916015625,1760516715.0268283
-5.3847560975609765,5.6780487804878055,-14.681097560975612,-0.7060546875,0.09814453125,0.6556396484375,1760516715.1365132
4.432317073170732,8.117073170731707,2.209146341463415,-0.7642822265625,0.1229248046875,0.66259765625,1760516715.2464573
4.1884146341463415,4.763414634146343,35.68475609756098,-0.7333984375,0.124755859375,0.6336669921875,1760516715.3594508
-4.226219512195122,3.3000000000000003,7.575000000000001,-0.76220703125,0.1102294921875,0.645263671875,1760516715.4706209
-0.3237804878048781,5.1902439024390254,-6.022560975609756,-0.769775390625,0.1317138671875,0.6358642578125,1760516715.5843036
0.16402439024390242,8.604878048780488,-15.961585365853658,-0.7481689453125,0.1170654296875,0.6290283203125,1760516715.695179
-7.579878048780489,-4.260975609756097,2.8798780487804883,-0.83251953125,0.1063232421875,0.65185546875,1760516715.8051972
-7.579878048780489,-15.48048780487805,-3.1567073170731708,-0.745849609375,0.0997314453125,0.6348876953125,1760516715.9168663
-3.1896341463414637,-11.578048780487805,8.184756097560976,-0.7039794921875,0.1285400390625,0.6405029296875,1760516716.0390024
5.773780487804879,-6.029268292682927,-13.034756097560978,-0.715576171875,0.147216796875,0.661376953125,1760516716.1541228
10.285975609756099,-0.29756097560975614,-12.790853658536587,-0.6505126953125,0.12158203125,0.6357421875,1760516716.264142
6.871341463414635,19.64146341463415,-8.278658536585366,-0.7578125,0.1229248046875,0.6531982421875,1760516716.3885734
3.8225609756097563,17.81219512195122,4.953048780487806,-0.7930908203125,0.14599609375,0.6458740234375,1760516716.4996521
-5.201829268292683,4.2146341463414645,11.172560975609757,-0.7825927734375,0.13916015625,0.6033935546875,1760516716.618077
10.346951219512196,0.31219512195121957,14.648170731707317,-0.7506103515625,0.159912109375,0.5997314453125,1760516716.7309911
26.74939024390244,3.9707317073170736,-2.729878048780488,-0.8184814453125,0.140625,0.6085205078125,1760516716.8466372
28.57865853658537,-8.529268292682927,-13.46158536585366,-0.7498779296875,0.1793212890625,0.598388671875,1760516716.9787703
1.3835365853658537,-13.407317073170733,-11.083536585365856,-0.75146484375,0.1700439453125,0.605224609375,1760516717.100945
-13.067682926829269,-7.675609756097561,8.428658536585367,-0.7421875,0.1954345703125,0.611083984375,1760516717.2130165
-9.53109756097561,-2.614634146341464,-0.7786585365853659,-0.742431640625,0.1956787109375,0.634033203125,1760516717.3281584
4.066463414634146,2.446341463414634,5.440853658536586,-0.69580078125,0.177734375,0.631591796875,1760516717.4413393
-2.03109756097561,4.7024390243902445,-8.095731707317075,-0.7425537109375,0.171630859375,0.622314453125,1760516717.5550098
-10.201829268292684,12.812195121951222,1.477439024390244,-0.698486328125,0.08203125,0.6322021484375,1760516717.6700811
-8.128658536585366,11.287804878048782,-5.16890243902439,-0.7598876953125,0.1226806640625,0.6357421875,1760516717.7833884
-5.628658536585366,0.5560975609756099,2.2701219512195125,-0.78271484375,0.14453125,0.6224365234375,1760516717.894808
1.8103658536585365,-0.7853658536585366,0.37987804878048786,-0.7601318359375,0.1103515625,0.6124267578125,1760516718.00454
-1.6652439024390246,-0.29756097560975614,-2.0591463414634146,-0.7926025390625,0.131591796875,0.6243896484375,1760516718.1142273
3.456707317073171,-4.139024390243902,-5.900609756097562,-0.802001953125,0.137939453125,0.6334228515625,1760516718.223716
4.676219512195122,-6.090243902439025,2.8798780487804883,-0.7713623046875,0.108642578125,0.6405029296875,1760516718.3420792
-1.4213414634146344,0.6170731707317074,-4.071341463414634,-0.6873779296875,0.120361328125,0.6064453125,1760516718.4553502
5.651829268292683,10.129268292682928,2.4530487804878054,-0.7471923828125,0.124267578125,0.6622314453125,1760516718.567532
3.7615853658536587,0.4341463414634147,-5.16890243902439,-0.815185546875,0.1304931640625,0.6707763671875,1760516718.6796215
-8.128658536585366,-12.309756097560976,-8.278658536585366,-0.7354736328125,0.1951904296875,0.643310546875,1760516718.7981188
2.725,-4.2,4.831097560975611,-0.6123046875,0.0853271484375,0.5721435546875,1760516718.9076877
-12.031097560975612,10.739024390243904,-15.351829268292684,-0.8670654296875,0.1492919921875,0.6798095703125,1760516719.0380645
8.822560975609758,-9.321951219512195,12.209146341463414,-0.7491455078125,0.1536865234375,0.6510009765625,1760516719.1495435
3.0908536585365853,-11.882926829268293,2.6359756097560982,-0.6943359375,0.125732421875,0.62841796875,1760516719.2632873
9.310365853658537,13.543902439024391,10.928658536585367,-0.704833984375,0.11279296875,0.6400146484375,1760516719.3770268
2.2371951219512196,-1.5170731707317073,-5.961585365853659,-0.7880859375,0.1304931640625,0.67578125,1760516719.4904022
-0.26280487804878055,-7.431707317073171,0.8676829268292684,-0.686279296875,0.155517578125,0.6439208984375,1760516719.616731
3.700609756097561,4.275609756097562,-1.1445121951219512,-0.683349609375,0.1617431640625,0.6251220703125,1760516719.7285013
-0.20182926829268297,1.0439024390243905,-5.412804878048781,-0.7618408203125,0.1728515625,0.66943359375,1760516719.840713
2.603048780487805,-6.7,0.4408536585365854,-0.7225341796875,0.151123046875,0.6427001953125,1760516719.9508317
-0.3237804878048781,-0.29756097560975614,14.709146341463414,-0.65478515625,0.095703125,0.602783203125,1760516720.0694299
1.7493902439024391,2.080487804878049,-7.18109756097561,-0.7593994140625,0.2049560546875,0.6793212890625,1760516720.180286
3.5176829268292686,-2.6756097560975616,5.684756097560976,-0.7149658203125,0.169189453125,0.646240234375,1760516720.2920814
-0.628658536585366,2.995121951219512,-6.388414634146342,-0.67236328125,0.1348876953125,0.60498046875,1760516720.4310734
-0.07987804878048785,13.056097560975612,-4.315243902439025,-0.7181396484375,0.173095703125,0.645751953125,1760516720.5430129
0.4079268292682927,2.3853658536585365,-5.229878048780488,-0.7510986328125,0.1336669921875,0.650146484375,1760516720.6579955
1.1396341463414634,3.8487804878048784,0.5628048780487805,-0.745849609375,0.1279296875,0.6072998046875,1760516720.7689424
-0.07987804878048785,5.495121951219513,-9.071341463414635,-0.7652587890625,0.116943359375,0.615966796875,1760516720.881158
-9.348170731707318,4.580487804878049,-30.839634146341464,-0.778564453125,0.0811767578125,0.6180419921875,1760516720.9936848
5.103048780487805,2.751219512195122,-18.94939024390244,-0.767333984375,0.081787109375,0.603271484375,1760516721.1046102
-12.214024390243903,-0.4804878048780488,-6.2664634146341465,-0.764892578125,0.0750732421875,0.600341796875,1760516721.2166753
2.4201219512195125,0.8609756097560977,-6.44939024390244,-0.810302734375,0.0567626953125,0.614501953125,1760516721.327611
8.822560975609758,0.8609756097560977,3.489634146341464,-0.752197265625,0.06884765625,0.599365234375,1760516721.442692
-0.1408536585365854,1.7756097560975612,0.1359756097560976,-0.779052734375,0.0753173828125,0.6014404296875,1760516721.5597353
0.7128048780487806,0.06829268292682929,-14.132317073170734,-0.794189453125,0.0848388671875,0.614990234375,1760516721.6690955
10.895731707317074,1.7146341463414636,19.221341463414635,-0.742919921875,0.05224609375,0.5810546875,1760516721.7835238
-1.3603658536585368,-1.3951219512195123,-1.6932926829268293,-0.787841796875,0.18310546875,0.610107421875,1760516721.893847
6.078658536585366,-0.41951219512195126,4.58719512195122,-0.777099609375,0.142822265625,0.5992431640625,1760516722.0076652
3.578658536585366,-5.602439024390244,15.806707317073172,-0.7529296875,0.1334228515625,0.5960693359375,1760516722.1252706
-31.421341463414635,-4.017073170731708,-15.65670731707317,-0.7938232421875,0.076416015625,0.61328125,1760516722.2382762
6.627439024390244,1.9585365853658536,-6.998170731707318,-0.771484375,0.0941162109375,0.6168212890625,1760516722.3490627
7.542073170731708,1.9585365853658536,2.209146341463415,-0.7734375,0.1346435546875,0.61962890625,1760516722.4601667
-0.8725609756097562,1.4097560975609758,2.3920731707317078,-0.79052734375,0.12646484375,0.62451171875,1760516722.5758214
-0.628658536585366,1.2268292682926831,-13.095731707317075,-0.7763671875,0.1214599609375,0.6019287109375,1760516722.6961586
3.9445121951219515,-1.6390243902439026,5.684756097560976,-0.7596435546875,0.1156005859375,0.6025390625,1760516722.8120282
-10.445731707317075,-2.1878048780487807,11.538414634146342,-0.7633056640625,0.0679931640625,0.6048583984375,1760516722.925031
6.2006097560975615,-1.578048780487805,4.34329268292683,-0.7862548828125,0.12548828125,0.6087646484375,1760516723.0374188
-2.8237804878048784,1.5926829268292686,-4.925,-0.7569580078125,0.1341552734375,0.6082763671875,1760516723.1539557
8.822560975609758,0.19024390243902442,-13.888414634146343,-0.7198486328125,0.185302734375,0.571044921875,1760516723.270014
1.0176829268292682,-1.8219512195121952,-0.8396341463414635,-0.7691650390625,0.0987548828125,0.6004638671875,1760516723.381023
11.139634146341464,0.4951219512195123,9.709146341463414,-0.791748046875,0.100830078125,0.603271484375,1760516723.492441
11.688414634146342,0.8000000000000002,9.09939024390244,-0.80419921875,0.14794921875,0.6163330078125,1760516723.6184187
24.31036585365854,13.239024390243904,-20.961585365853658,-0.7281494140625,0.198486328125,0.626953125,1760516723.7310507
-9.287195121951221,-1.7609756097560976,6.172560975609757,-0.75927734375,0.150634765625,0.5748291015625,1760516723.8427002
-19.34817073170732,-3.2243902439024397,37.514024390243904,-0.77734375,0.1737060546875,0.5992431640625,1760516723.9534488
-53.55548780487805,-15.48048780487805,38.91646341463415,-0.73388671875,0.08056640625,0.5968017578125,1760516724.0650272
9.432317073170733,0.9219512195121953,-6.083536585365854,-0.6968994140625,0.212646484375,0.614013671875,1760516724.177945
10.834756097560977,16.714634146341464,-113.33963414634147,-0.7645263671875,0.10205078125,0.6292724609375,1760516724.293166
4.432317073170732,0.3731707317073171,-23.94939024390244,-0.7686767578125,0.121337890625,0.6158447265625,1760516724.4074874
-13.55548780487805,1.8975609756097562,3.2457317073170735,-0.788330078125,0.0267333984375,0.623291015625,1760516724.5184164
-4.653048780487805,0.7390243902439025,10.257926829268293,-0.758056640625,0.06689453125,0.61083984375,1760516724.6312706
-29.226219512195126,11.348780487804879,-20.41280487804878,-0.7982177734375,0.0972900390625,0.608642578125,1760516724.741965
-4.3481707317073175,-0.23658536585365855,-10.656707317073172,-0.7686767578125,0.0740966796875,0.6226806640625,1760516724.8525286
-8.55548780487805,2.751219512195122,-1.0225609756097562,-0.8243408203125,0.0811767578125,0.624267578125,1760516724.9656208
-2.762804878048781,-2.0048780487804883,-3.6445121951219512,-0.7509765625,0.1107177734375,0.6014404296875,1760516725.0887926
-8.31158536585366,-4.565853658536586,-11.388414634146343,-0.7626953125,0.021240234375,0.6258544921875,1760516725.214646
-16.29939024390244,6.104878048780488,-62.607926829268294,-0.7254638671875,-0.025390625,0.6014404296875,1760516725.3253825
-71.48231707317073,-5.663414634146342,0.3189024390243903,-0.7578125,-0.086669921875,0.6981201171875,1760516725.4398952
-10.140853658536587,2.324390243902439,-6.510365853658537,-0.7705078125,-0.1146240234375,0.6781005859375,1760516725.5550997
12.115243902439026,-5.175609756097561,20.44085365853659,-0.7708740234375,-0.061279296875,0.58984375,1760516725.6683698
4.676219512195122,0.8609756097560977,10.928658536585367,-0.7823486328125,-0.0201416015625,0.5985107421875,1760516725.7781453
-1.6652439024390246,-1.6390243902439026,14.709146341463414,-0.77783203125,-0.0040283203125,0.606201171875,1760516725.8880556
-12.457926829268294,8.604878048780488,-42.364024390243905,-0.787109375,-0.0555419921875,0.6060791015625,1760516725.9995334
-7.579878048780489,3.8487804878048784,-23.827439024390245,-0.7484130859375,-0.033935546875,0.5986328125,1760516726.110018
-27.031097560975613,-14.321951219512195,2.8189024390243906,-0.773193359375,-0.107177734375,0.611083984375,1760516726.2210102
-15.445731707317075,-5.541463414634147,-6.876219512195123,-0.7235107421875,-0.153564453125,0.60693359375,1760516726.3302758
2.5420731707317072,0.7390243902439025,-9.681097560975612,-0.778076171875,-0.215087890625,0.622802734375,1760516726.4395313
2.176219512195122,-2.4926829268292687,30.623780487804883,-0.7789306640625,-0.1375732421875,0.6748046875,1760516726.549254
-12.457926829268294,-1.5170731707317073,-2.425,-0.75634765625,-0.086669921875,0.6351318359375,1760516726.6595595
-10.201829268292684,1.7756097560975612,3.1847560975609763,-0.72607421875,-0.1298828125,0.6263427734375,1760516726.7717378
1.8713414634146341,0.6170731707317074,4.892073170731708,-0.7630615234375,-0.143798828125,0.6075439453125,1760516726.8845155
17.7859756097561,2.446341463414634,11.538414634146342,-0.7783203125,-0.0828857421875,0.6243896484375,1760516726.9947758
6.139634146341463,-3.8951219512195125,11.84329268292683,-0.7261962890625,-0.033935546875,0.6064453125,1760516727.107489
11.810365853658537,4.153658536585366,1.2335365853658538,-0.79052734375,0.0751953125,0.6318359375,1760516727.2193735
19.066463414634146,-1.273170731707317,11.721341463414635,-0.7403564453125,0.0673828125,0.6124267578125,1760516727.3287194
2.725,-0.4804878048780488,-10.595731707317075,-0.8206787109375,0.0855712890625,0.6436767578125,1760516727.4434376
-6.970121951219513,-7.431707317073171,-14.559146341463416,-0.7491455078125,0.0404052734375,0.60888671875,1760516727.5562851
-2.153048780487805,-1.3341463414634147,5.562804878048781,-0.7528076171875,0.026123046875,0.62255859375,1760516727.671829
2.7859756097560977,2.202439024390244,14.953048780487805,-0.7574462890625,0.0211181640625,0.609130859375,1760516727.783597
17.907926829268295,6.958536585365855,-1.0835365853658536,-0.7431640625,0.0855712890625,0.625,1760516727.8930752
1.627439024390244,-0.724390243902439,8.916463414634146,-0.784912109375,0.1102294921875,0.6265869140625,1760516728.0028458
1.322560975609756,-2.309756097560976,6.538414634146342,-0.7586669921875,0.0672607421875,0.619384765625,1760516728.114202
-3.433536585365854,-3.5292682926829273,1.7213414634146342,-0.756103515625,0.0091552734375,0.60986328125,1760516728.2273216
-6.665243902439025,-15.053658536585367,-11.815243902439025,-0.7861328125,0.0521240234375,0.6376953125,1760516728.3526347
8.029878048780489,0.5560975609756099,11.294512195121952,-0.760009765625,0.027587890625,0.6162109375,1760516728.4627335
6.99329268292683,1.653658536585366,5.440853658536586,-0.7867431640625,0.084228515625,0.62646484375,1760516728.572449
1.7493902439024391,6.287804878048782,-8.034756097560978,-0.7818603515625,0.0457763671875,0.6148681640625,1760516728.681749
7.785975609756098,0.19024390243902442,1.2945121951219514,-0.7818603515625,0.1070556640625,0.6297607421875,1760516728.7931163
2.5420731707317072,-5.541463414634147,-3.705487804878049,-0.76318359375,0.0618896484375,0.6014404296875,1760516728.9023335
10.225000000000001,-3.5292682926829273,11.294512195121952,-0.76708984375,0.0814208984375,0.60986328125,1760516729.0113444
-6.970121951219513,9.214634146341464,-18.400609756097563,-0.7667236328125,0.049072265625,0.5966796875,1760516729.1250381
-14.287195121951221,7.019512195121952,-12.181097560975612,-0.7940673828125,0.089599609375,0.628662109375,1760516729.235744
38.57865853658537,9.214634146341464,-32.18109756097561,-0.7637939453125,0.119140625,0.5703125,1760516729.3449764
28.151829268292687,3.8487804878048784,-17.72987804878049,-0.8016357421875,0.06298828125,0.57861328125,1760516729.4543262
1.7493902439024391,6.226829268292684,2.2701219512195125,-0.7469482421875,0.08740234375,0.552734375,1760516729.5647867
-16.665243902439027,8.239024390243904,-9.559146341463416,-0.802001953125,0.047119140625,0.5521240234375,1760516729.6796825
-3.4945121951219518,-4.809756097560975,3.7335365853658544,-0.806640625,0.0867919921875,0.5404052734375,1760516729.7887683
-25.201829268292684,-7.797560975609756,22.39207317073171,-0.7413330078125,0.0919189453125,0.5423583984375,1760516729.906175
0.16402439024390242,-4.809756097560975,14.09939024390244,-0.75927734375,0.0684814453125,0.58447265625,1760516730.0216494
5.1640243902439025,-1.2121951219512195,8.550609756097561,-0.8001708984375,-0.068359375,0.60791015625,1760516730.1327727
-5.018902439024391,-4.2,11.355487804878049,-0.7958984375,-0.0274658203125,0.6343994140625,1760516730.242312
-11.482317073170734,-5.96829268292683,3.9774390243902444,-0.7742919921875,0.0283203125,0.6112060546875,1760516730.352331
-17.335975609756098,-4.139024390243902,-6.144512195121951,-0.7091064453125,0.0294189453125,0.6104736328125,1760516730.462603
-5.567682926829269,-0.7853658536585366,-30.290853658536587,-0.769287109375,-0.02001953125,0.6170654296875,1760516730.5749054
17.7859756097561,1.8975609756097562,-32.425000000000004,-0.7685546875,-0.117919921875,0.6617431640625,1760516730.683916
22.054268292682927,0.06829268292682929,-30.96158536585366,-0.7373046875,-0.0865478515625,0.6287841796875,1760516730.794203
-8.372560975609757,-14.504878048780489,-5.229878048780488,-0.8145751953125,-0.1197509765625,0.6129150390625,1760516730.9055917
-19.104268292682928,4.275609756097562,1.904268292682927,-0.7440185546875,-0.04638671875,0.5963134765625,1760516731.018315
15.164024390243904,24.946341463414637,53.489634146341466,-0.0460205078125,0.079345703125,0.4544677734375,1760516731.1295464
-0.628658536585366,-4.68780487804878,18.428658536585367,-0.7794189453125,-0.083740234375,0.5994873046875,1760516731.2393835
2.4201219512195125,-7.3707317073170735,22.026219512195127,-0.7828369140625,-0.06640625,0.6019287109375,1760516731.3486853
-36.177439024390246,-8.346341463414635,-29.071341463414637,-0.677001953125,-0.0726318359375,0.5989990234375,1760516731.4634864
14.24939024390244,-25.29756097560976,18.977439024390247,-0.6455078125,-0.0657958984375,0.5963134765625,1760516731.5801573
28.02987804878049,-10.846341463414635,-4.68109756097561,-0.7982177734375,-0.12939453125,0.6502685546875,1760516731.6905441
5.407926829268293,-7.187804878048781,16.782317073170734,-0.6998291015625,-0.091796875,0.6341552734375,1760516731.8021731
-4.53109756097561,2.3853658536585365,6.111585365853659,-0.7049560546875,-0.1102294921875,0.662353515625,1760516731.9124682
-13.494512195121953,7.812195121951221,-0.7786585365853659,-0.741455078125,-0.1026611328125,0.6409912109375,1760516732.0235066
-3.4945121951219518,11.653658536585366,-16.44939024390244,-0.72216796875,-0.076171875,0.646240234375,1760516732.137171
-14.04329268292683,1.3487804878048781,0.3189024390243903,-0.735107421875,-0.1160888671875,0.631591796875,1760516732.2514334
-1.1164634146341466,1.2268292682926831,-2.364024390243902,-0.7481689453125,-0.1143798828125,0.638427734375,1760516732.3614712
-0.6896341463414635,4.458536585365854,-11.815243902439025,-0.740234375,-0.1326904296875,0.6407470703125,1760516732.4730573
3.883536585365854,1.9585365853658536,-0.7786585365853659,-0.7540283203125,-0.1409912109375,0.6302490234375,1760516732.5825531
3.5176829268292686,-2.065853658536586,5.867682926829269,-0.71533203125,-0.1429443359375,0.62744140625,1760516732.6944501
0.4079268292682927,2.202439024390244,-1.6323170731707317,-0.7523193359375,-0.13134765625,0.621826171875,1760516732.8056827
-0.07987804878048785,3.1170731707317074,-4.742073170731707,-0.759033203125,-0.1102294921875,0.613037109375,1760516732.919345
-5.689634146341464,0.007317073170731715,-1.449390243902439,-0.7213134765625,-0.150146484375,0.634765625,1760516733.0383894
4.24939024390244,-0.23658536585365855,-2.6689024390243903,-0.76416015625,-0.1285400390625,0.65185546875,1760516733.1526344
