Gx,Gy,Gz,Ax,Ay,Az,label,timestamp
-8.292682926829269,-1.524390243902439,1.829268292682927,-0.59326171875,0.75048828125,0.2479248046875,0,1760598727.9948208
-2.987804878048781,-0.30487804878048785,-1.0365853658536586,-0.5955810546875,0.74755859375,0.2457275390625,0,1760598728.103733
8.902439024390244,-0.6097560975609757,-2.682926829268293,-0.590576171875,0.7523193359375,0.2431640625,0,1760598728.2123983
9.146341463414634,-0.853658536585366,-5.060975609756098,-0.5819091796875,0.744384765625,0.2578125,0,1760598728.3212926
1.5853658536585367,-0.06097560975609757,-2.073170731707317,-0.591796875,0.7491455078125,0.257568359375,0,1760598728.4299247
2.3170731707317076,-15.182926829268293,-0.6097560975609757,-0.5897216796875,0.7454833984375,0.2568359375,0,1760598728.5385199
-2.3170731707317076,0.30487804878048785,-0.12195121951219513,-0.587646484375,0.7501220703125,0.26171875,0,1760598728.647202
-4.75609756097561,-1.3414634146341464,0.30487804878048785,-0.59521484375,0.749755859375,0.2435302734375,0,1760598728.7559984
8.902439024390244,1.0365853658536586,-2.0121951219512195,-0.5931396484375,0.75341796875,0.228271484375,0,1760598728.8646767
9.634146341463415,0.5487804878048781,-3.5975609756097566,-0.5965576171875,0.7484130859375,0.2449951171875,0,1760598728.9732192
5.7926829268292686,-0.30487804878048785,-3.8414634146341466,-0.5953369140625,0.746826171875,0.254638671875,0,1760598729.0818207
3.4756097560975614,-0.6097560975609757,-2.5,-0.590087890625,0.75048828125,0.2548828125,0,1760598729.1906748
0.9756097560975611,-0.30487804878048785,14.817073170731708,-0.5850830078125,0.75048828125,0.2552490234375,0,1760598729.2992976
-1.7682926829268295,0.426829268292683,-0.12195121951219513,-0.5892333984375,0.7603759765625,0.2552490234375,0,1760598729.4079652
-10.121951219512196,-0.12195121951219513,-0.48780487804878053,-0.5947265625,0.7470703125,0.2618408203125,0,1760598729.5168085
-8.475609756097562,-0.426829268292683,15.243902439024392,-0.5889892578125,0.7508544921875,0.254638671875,0,1760598729.6253867
-5.548780487804878,0.48780487804878053,1.524390243902439,-0.5830078125,0.7510986328125,0.25634765625,0,1760598729.73419
1.0365853658536586,-3.1097560975609757,-3.7195121951219514,-0.5723876953125,0.746337890625,0.3101806640625,0,1760598729.842837
-11.463414634146343,-0.7317073170731708,1.707317073170732,-0.58740234375,0.7513427734375,0.258056640625,0,1760598729.9514682
-11.158536585365855,-0.24390243902439027,1.402439024390244,-0.58984375,0.7493896484375,0.2462158203125,0,1760598730.060159
1.2195121951219514,-3.1097560975609757,-1.829268292682927,-0.5936279296875,0.7479248046875,0.2564697265625,0,1760598730.1687257
-5.914634146341464,-1.0365853658536586,4.878048780487806,-0.581298828125,0.7479248046875,0.2718505859375,0,1760598730.2774
0.24390243902439027,2.6219512195121952,1.2195121951219514,-0.5892333984375,0.746826171875,0.2689208984375,0,1760598730.3862016
2.1341463414634148,-3.048780487804878,-1.6463414634146343,-0.5859375,0.75341796875,0.27685546875,0,1760598730.4948566
-4.2682926829268295,3.780487804878049,-3.7195121951219514,-0.5858154296875,0.754150390625,0.242919921875,0,1760598730.6034741
-18.963414634146343,0.0,7.195121951219513,-0.581298828125,0.7490234375,0.2637939453125,0,1760598730.712101
2.1341463414634148,-2.0121951219512195,-0.24390243902439027,-0.5802001953125,0.7545166015625,0.2947998046875,0,1760598730.8206997
-2.804878048780488,-0.12195121951219513,-1.4634146341463417,-0.5738525390625,0.747802734375,0.2789306640625,0,1760598730.9292884
1.7682926829268295,3.1707317073170733,-1.2195121951219514,-0.56982421875,0.7579345703125,0.26123046875,0,1760598731.037868
-0.48780487804878053,-1.6463414634146343,0.9146341463414634,-0.574951171875,0.763427734375,0.2689208984375,0,1760598731.146469
3.658536585365854,-0.24390243902439027,-0.853658536585366,-0.572021484375,0.7584228515625,0.278564453125,0,1760598731.2550154
-7.439024390243903,1.0975609756097562,3.048780487804878,-0.571044921875,0.763427734375,0.259765625,0,1760598731.363604
-3.1707317073170733,1.829268292682927,0.7317073170731708,-0.5548095703125,0.75927734375,0.2794189453125,0,1760598731.4721403
-4.024390243902439,1.9512195121951221,1.0975609756097562,-0.573974609375,0.7637939453125,0.2705078125,0,1760598731.580715
5.609756097560976,0.0,-2.25609756097561,-0.5576171875,0.760498046875,0.278564453125,0,1760598731.6892755
0.3658536585365854,1.7682926829268295,0.426829268292683,-0.5499267578125,0.7691650390625,0.2916259765625,0,1760598731.7980113
3.4756097560975614,-0.1829268292682927,0.1829268292682927,-0.571533203125,0.767822265625,0.2568359375,0,1760598731.9066148
-0.12195121951219513,-0.6097560975609757,-1.0365853658536586,-0.55859375,0.78076171875,0.27099609375,0,1760598732.0151434
-0.5487804878048781,0.06097560975609757,0.3658536585365854,-0.552490234375,0.7694091796875,0.27587890625,0,1760598732.123708
3.353658536585366,-0.06097560975609757,-1.524390243902439,-0.5458984375,0.777099609375,0.2686767578125,0,1760598732.2322679
-1.402439024390244,1.6463414634146343,0.06097560975609757,-0.5576171875,0.7772216796875,0.2513427734375,0,1760598732.3408775
-2.439024390243903,-1.829268292682927,1.5853658536585367,-0.552001953125,0.7701416015625,0.295166015625,0,1760598732.4494345
0.7926829268292683,15.182926829268293,-0.30487804878048785,-0.5521240234375,0.7764892578125,0.28125,0,1760598732.5581987
0.1829268292682927,0.1829268292682927,0.5487804878048781,-0.5462646484375,0.770751953125,0.2921142578125,0,1760598732.6668947
0.7926829268292683,-0.48780487804878053,-1.0365853658536586,-0.543212890625,0.784912109375,0.26318359375,0,1760598732.7755308
-0.6707317073170732,-0.1829268292682927,-0.3658536585365854,-0.541748046875,0.7857666015625,0.27392578125,0,1760598732.8841941
-3.9024390243902443,-0.7926829268292683,-0.7926829268292683,-0.5384521484375,0.7784423828125,0.2803955078125,0,1760598732.9927347
-2.9268292682926833,1.5853658536585367,0.30487804878048785,-0.56201171875,0.7877197265625,0.270751953125,0,1760598733.1013756
-0.5487804878048781,-0.9146341463414634,-0.24390243902439027,-0.546630859375,0.7779541015625,0.2901611328125,0,1760598733.209904
-0.9146341463414634,-1.9512195121951221,-1.1585365853658538,-0.5377197265625,0.77490234375,0.30419921875,0,1760598733.3185105
-3.231707317073171,-0.9146341463414634,-1.0365853658536586,-0.525634765625,0.760986328125,0.3211669921875,0,1760598733.4270494
-1.6463414634146343,-15.609756097560977,-0.9756097560975611,-0.5526123046875,0.769287109375,0.3004150390625,0,1760598733.5356357
-1.829268292682927,-1.2195121951219514,0.06097560975609757,-0.5391845703125,0.76904296875,0.3153076171875,0,1760598733.6465065
-9.573170731707318,-0.9146341463414634,0.7317073170731708,-0.538330078125,0.761962890625,0.330810546875,0,1760598733.755177
2.073170731707317,0.6707317073170732,-1.524390243902439,-0.548583984375,0.760986328125,0.326904296875,0,1760598733.8637087
-1.4634146341463417,1.8902439024390245,-1.2195121951219514,-0.5372314453125,0.7613525390625,0.3248291015625,0,1760598733.972327
-2.378048780487805,1.5853658536585367,-0.7317073170731708,-0.541015625,0.761474609375,0.320556640625,0,1760598734.0809357
-0.24390243902439027,-2.5609756097560976,-0.7317073170731708,-0.5338134765625,0.7689208984375,0.3251953125,0,1760598734.1895828
-0.48780487804878053,1.829268292682927,-0.12195121951219513,-0.5487060546875,0.769287109375,0.3140869140625,0,1760598734.298181
1.707317073170732,-0.9146341463414634,-1.0975609756097562,-0.52587890625,0.7679443359375,0.33203125,0,1760598734.4092095
6.707317073170732,-1.2804878048780488,-2.3170731707317076,-0.5379638671875,0.756103515625,0.322265625,0,1760598734.5178692
5.426829268292684,2.1951219512195124,-2.378048780487805,-0.5322265625,0.7642822265625,0.308349609375,0,1760598734.626504
2.9268292682926833,-2.9268292682926833,-0.48780487804878053,-0.5347900390625,0.7752685546875,0.310791015625,0,1760598734.7351375
4.024390243902439,3.2926829268292686,-0.6097560975609757,-0.5318603515625,0.773193359375,0.2978515625,0,1760598734.8437927
8.292682926829269,-1.707317073170732,-0.48780487804878053,-0.521240234375,0.747314453125,0.31103515625,0,1760598734.9524002
6.463414634146342,-15.426829268292684,-0.06097560975609757,-0.5433349609375,0.78369140625,0.2520751953125,0,1760598735.061036
10.853658536585368,-0.5487804878048781,-0.5487804878048781,-0.5458984375,0.8033447265625,0.2509765625,0,1760598735.169583
15.853658536585368,0.5487804878048781,-1.1585365853658538,-0.5316162109375,0.7908935546875,0.272705078125,0,1760598735.2781427
6.158536585365854,14.939024390243905,0.5487804878048781,-0.528076171875,0.8104248046875,0.251220703125,0,1760598735.387077
6.585365853658537,-2.987804878048781,0.48780487804878053,-0.548583984375,0.803466796875,0.229248046875,0,1760598735.495663
-11.829268292682928,0.3658536585365854,-1.707317073170732,-0.560302734375,0.80224609375,0.1802978515625,0,1760598735.604265
-0.7926829268292683,-2.7439024390243905,-2.439024390243903,-0.5311279296875,0.8104248046875,0.23095703125,0,1760598735.7129204
-8.048780487804878,-0.426829268292683,1.4634146341463417,-0.537353515625,0.824951171875,0.2279052734375,0,1760598735.8215237
-17.439024390243905,0.426829268292683,-0.3658536585365854,-0.533447265625,0.8070068359375,0.2110595703125,0,1760598735.9301178
-2.1951219512195124,-0.12195121951219513,1.707317073170732,-0.5377197265625,0.803466796875,0.236083984375,0,1760598736.0387552
1.707317073170732,5.3048780487804885,1.3414634146341464,-0.5416259765625,0.8193359375,0.2301025390625,0,1760598736.1473336
3.7195121951219514,-0.48780487804878053,-1.4634146341463417,-0.5347900390625,0.804443359375,0.2586669921875,0,1760598736.2561016
-12.80487804878049,0.3658536585365854,2.987804878048781,-0.5166015625,0.80322265625,0.230712890625,0,1760598736.3649032
6.402439024390245,-2.6219512195121952,9.878048780487806,-0.52490234375,0.8082275390625,0.25830078125,0,1760598736.4735038
-3.9024390243902443,14.390243902439027,8.78048780487805,-0.510009765625,0.804443359375,0.2000732421875,0,1760598736.5822191
-6.463414634146342,11.646341463414634,2.6219512195121952,-0.51416015625,0.8177490234375,0.1981201171875,0,1760598736.6908748
2.0121951219512195,12.926829268292684,14.573170731707318,-0.5091552734375,0.818359375,0.2255859375,0,1760598736.7995715
-6.951219512195123,14.146341463414636,-4.207317073170732,-0.512939453125,0.8338623046875,0.2540283203125,0,1760598736.9082267
-19.512195121951223,10.487804878048781,-0.7317073170731708,-0.5201416015625,0.8173828125,0.162109375,0,1760598737.0170376
-3.963414634146342,10.914634146341465,3.048780487804878,-0.5390625,0.82763671875,0.2135009765625,0,1760598737.1258008
-1.707317073170732,13.109756097560977,8.414634146341465,-0.5379638671875,0.82177734375,0.2386474609375,0,1760598737.2344835
-3.1097560975609757,-1.829268292682927,0.6707317073170732,-0.5196533203125,0.7930908203125,0.2275390625,0,1760598737.3431003
-3.2926829268292686,2.682926829268293,-1.829268292682927,-0.5284423828125,0.828125,0.197998046875,0,1760598737.4516597
1.3414634146341464,-1.707317073170732,-4.329268292682928,-0.5155029296875,0.8309326171875,0.145751953125,0,1760598737.560247
15.243902439024392,-4.451219512195122,-6.097560975609756,-0.533935546875,0.808837890625,0.20654296875,0,1760598737.6688771
-1.8902439024390245,-0.48780487804878053,0.12195121951219513,-0.5416259765625,0.82275390625,0.196533203125,0,1760598737.777465
2.682926829268293,-5.426829268292684,-1.707317073170732,-0.523681640625,0.789306640625,0.2021484375,0,1760598737.8860686
1.7682926829268295,-4.451219512195122,-2.8658536585365857,-0.5482177734375,0.8414306640625,0.200439453125,0,1760598737.9946613
0.30487804878048785,-1.6463414634146343,0.0,-0.5380859375,0.8114013671875,0.18359375,0,1760598738.1033072
2.5609756097560976,-1.9512195121951221,1.2804878048780488,-0.5203857421875,0.80908203125,0.2161865234375,0,1760598738.2119062
14.817073170731708,-1.9512195121951221,0.9756097560975611,-0.539306640625,0.815185546875,0.1973876953125,0,1760598738.3204927
0.6097560975609757,-2.804878048780488,1.2195121951219514,-0.5146484375,0.80029296875,0.2025146484375,0,1760598738.4290972
-3.5975609756097566,-1.2804878048780488,2.5,-0.552978515625,0.8453369140625,0.1119384765625,0,1760598738.537707
2.3170731707317076,-1.524390243902439,-1.3414634146341464,-0.53955078125,0.82373046875,0.164306640625,0,1760598738.6463332
5.182926829268293,-4.085365853658537,-2.25609756097561,-0.5318603515625,0.830810546875,0.2178955078125,0,1760598738.7549129
0.0,0.426829268292683,0.30487804878048785,-0.53271484375,0.8148193359375,0.1988525390625,0,1760598738.8635979
-0.48780487804878053,-1.2804878048780488,0.30487804878048785,-0.5174560546875,0.8143310546875,0.20361328125,0,1760598738.97219
-26.58536585365854,-1.524390243902439,-0.853658536585366,-0.490478515625,0.780029296875,0.1510009765625,0,1760598739.0807765
0.24390243902439027,2.439024390243903,-0.1829268292682927,-0.528076171875,0.828369140625,0.210693359375,0,1760598739.1893585
1.707317073170732,-4.695121951219512,-0.1829268292682927,-0.51708984375,0.7813720703125,0.2275390625,0,1760598739.2979548
4.51219512195122,-0.9756097560975611,-5.670731707317073,-0.5260009765625,0.830810546875,0.19775390625,0,1760598739.4065788
-2.0121951219512195,-2.0121951219512195,1.2804878048780488,-0.5567626953125,0.78662109375,0.1756591796875,0,1760598739.5151842
-2.5609756097560976,-2.1341463414634148,1.829268292682927,-0.5025634765625,0.804443359375,0.177490234375,0,1760598739.6237836
1.0365853658536586,-3.1097560975609757,-2.8658536585365857,-0.5152587890625,0.8199462890625,0.21875,0,1760598739.7323983
6.707317073170732,-8.658536585365855,-2.9268292682926833,-0.5484619140625,0.801513671875,0.1759033203125,0,1760598739.8409758
1.0365853658536586,1.2804878048780488,-1.4634146341463417,-0.5145263671875,0.7972412109375,0.22314453125,0,1760598739.9495754
1.402439024390244,0.3658536585365854,-1.8902439024390245,-0.5159912109375,0.8179931640625,0.2196044921875,0,1760598740.0581403
8.048780487804878,-9.573170731707318,-1.7682926829268295,-0.5860595703125,0.773193359375,0.2003173828125,0,1760598740.1667125
10.670731707317074,-9.695121951219512,-0.7317073170731708,-0.53125,0.8231201171875,0.29638671875,0,1760598740.2753613
-1.524390243902439,-3.231707317073171,-0.1829268292682927,-0.5133056640625,0.791748046875,0.2049560546875,0,1760598740.3839777
3.7195121951219514,-5.365853658536586,-3.658536585365854,-0.5185546875,0.8267822265625,0.23486328125,0,1760598740.494854
-5.121951219512195,-2.1951219512195124,3.1707317073170733,-0.539794921875,0.8360595703125,0.216796875,0,1760598740.6034744
-6.036585365853659,-7.25609756097561,1.7682926829268295,-0.5633544921875,0.820556640625,0.2476806640625,0,1760598740.7120771
4.939024390243903,-4.451219512195122,-5.731707317073171,-0.522216796875,0.8155517578125,0.2144775390625,0,1760598740.8207638
-1.524390243902439,-2.073170731707317,-0.9146341463414634,-0.520263671875,0.81689453125,0.2159423828125,0,1760598740.929328
1.5853658536585367,-1.9512195121951221,0.9756097560975611,-0.5128173828125,0.7930908203125,0.2664794921875,0,1760598741.037904
-0.426829268292683,-8.353658536585366,-8.963414634146343,-0.4873046875,0.781982421875,0.226318359375,0,1760598741.1465104
0.9756097560975611,-10.426829268292684,-3.2926829268292686,-0.52685546875,0.8050537109375,0.223388671875,0,1760598741.2550855
0.6707317073170732,-2.073170731707317,-0.6707317073170732,-0.5123291015625,0.79833984375,0.2237548828125,0,1760598741.363718
-5.060975609756098,0.06097560975609757,0.6707317073170732,-0.5191650390625,0.8084716796875,0.2431640625,0,1760598741.4722679
-1.1585365853658538,-1.9512195121951221,-1.2195121951219514,-0.5155029296875,0.8143310546875,0.24658203125,0,1760598741.5809429
2.5,-0.3658536585365854,0.426829268292683,-0.5091552734375,0.8319091796875,0.2613525390625,0,1760598741.689585
-0.9146341463414634,-1.2195121951219514,-3.963414634146342,-0.52197265625,0.8145751953125,0.234619140625,0,1760598741.798193
0.12195121951219513,3.8414634146341466,-1.0975609756097562,-0.5311279296875,0.8046875,0.255859375,0,1760598741.9067702
1.6463414634146343,4.878048780487806,-0.6707317073170732,-0.514404296875,0.8076171875,0.237548828125,0,1760598742.0152926
2.5609756097560976,-2.0121951219512195,-1.4634146341463417,-0.52587890625,0.804443359375,0.2508544921875,0,1760598742.1238155
3.1707317073170733,-1.829268292682927,-1.0365853658536586,-0.515869140625,0.822021484375,0.2415771484375,0,1760598742.2323418
0.9146341463414634,-0.24390243902439027,-2.682926829268293,-0.525146484375,0.8033447265625,0.253173828125,0,1760598742.3409407
-0.12195121951219513,2.439024390243903,-0.9146341463414634,-0.5135498046875,0.8006591796875,0.248291015625,0,1760598742.449483
-2.7439024390243905,-2.7439024390243905,-0.426829268292683,-0.5211181640625,0.8349609375,0.238037109375,0,1760598742.5581381
-3.5975609756097566,1.3414634146341464,0.0,-0.5267333984375,0.816650390625,0.2296142578125,0,1760598742.6667356
-3.8414634146341466,0.7926829268292683,1.1585365853658538,-0.522705078125,0.7685546875,0.2064208984375,0,1760598742.7754133
6.341463414634147,4.51219512195122,-6.890243902439025,-0.4951171875,0.79931640625,0.263671875,0,1760598742.8840163
3.1707317073170733,2.1341463414634148,-5.182926829268293,-0.5528564453125,0.81396484375,0.2347412109375,0,1760598742.992619
-7.500000000000001,2.682926829268293,-3.8414634146341466,-0.567138671875,0.7740478515625,0.19189453125,0,1760598743.10129
0.24390243902439027,1.829268292682927,-3.8414634146341466,-0.5205078125,0.8056640625,0.2279052734375,0,1760598743.2099247
4.695121951219512,-1.2195121951219514,-1.4634146341463417,-0.53955078125,0.7945556640625,0.2100830078125,0,1760598743.3185275
6.951219512195123,4.207317073170732,-3.8414634146341466,-0.533447265625,0.7840576171875,0.22265625,0,1760598743.4271219
4.939024390243903,1.0365853658536586,-4.695121951219512,-0.549560546875,0.7955322265625,0.1749267578125,0,1760598743.5357385
5.2439024390243905,-0.3658536585365854,-5.853658536585367,-0.5572509765625,0.80078125,0.2047119140625,0,1760598743.6443267
-6.7682926829268295,-5.853658536585367,-1.707317073170732,-0.5699462890625,0.80712890625,0.2113037109375,0,1760598743.75289
5.3048780487804885,-0.853658536585366,-5.060975609756098,-0.556640625,0.7655029296875,0.21142578125,0,1760598743.8614647
4.390243902439025,-0.6707317073170732,-7.195121951219513,-0.56884765625,0.78515625,0.232666015625,0,1760598743.9699743
-0.5487804878048781,-0.48780487804878053,-5.365853658536586,-0.5924072265625,0.7833251953125,0.184814453125,0,1760598744.0785332
-7.439024390243903,2.1341463414634148,3.658536585365854,-0.5838623046875,0.7618408203125,0.1876220703125,0,1760598744.18718
-5.487804878048781,-2.682926829268293,5.2439024390243905,-0.5843505859375,0.80078125,0.2003173828125,0,1760598744.2957828
-8.231707317073171,-3.658536585365854,7.987804878048781,-0.59521484375,0.78759765625,0.2008056640625,0,1760598744.4044187
2.987804878048781,1.707317073170732,2.5609756097560976,-0.579345703125,0.76025390625,0.2315673828125,0,1760598744.5130079
-2.682926829268293,4.2682926829268295,3.5975609756097566,-0.5279541015625,0.7646484375,0.237060546875,0,1760598744.6216204
0.6097560975609757,0.1829268292682927,5.609756097560976,-0.5521240234375,0.80126953125,0.26171875,0,1760598744.7302477
1.1585365853658538,4.146341463414634,8.475609756097562,-0.5406494140625,0.798828125,0.207275390625,0,1760598744.8388755
5.0,1.8902439024390245,8.170731707317074,-0.5284423828125,0.818359375,0.2462158203125,0,1760598744.9474702
7.439024390243903,0.1829268292682927,12.865853658536587,-0.504150390625,0.814697265625,0.2459716796875,0,1760598745.0559952
1.7682926829268295,1.829268292682927,13.29268292682927,-0.4833984375,0.828125,0.208984375,0,1760598745.16461
2.3170731707317076,3.1707317073170733,10.731707317073171,-0.4658203125,0.8448486328125,0.207275390625,0,1760598745.2731924
-1.0365853658536586,0.7926829268292683,6.707317073170732,-0.4404296875,0.83984375,0.2047119140625,0,1760598745.3818254
-8.292682926829269,1.5853658536585367,1.1585365853658538,-0.447265625,0.8648681640625,0.2078857421875,0,1760598745.4923167
-1.5853658536585367,7.25609756097561,-1.1585365853658538,-0.4481201171875,0.8507080078125,0.184326171875,0,1760598745.6009567
-2.3170731707317076,17.926829268292686,0.6097560975609757,-0.4302978515625,0.8623046875,0.2196044921875,0,1760598745.709553
1.5853658536585367,4.2682926829268295,-5.426829268292684,-0.4603271484375,0.889404296875,0.2418212890625,0,1760598745.8181593
-1.2804878048780488,9.329268292682928,0.5487804878048781,-0.485595703125,0.864013671875,0.2052001953125,0,1760598745.9271812
-8.475609756097562,3.780487804878049,-4.573170731707317,-0.4512939453125,0.8162841796875,0.18798828125,0,1760598746.0358295
-2.1951219512195124,-1.4634146341463417,-3.1097560975609757,-0.4697265625,0.877197265625,0.2181396484375,0,1760598746.1451142
0.6707317073170732,5.060975609756098,3.231707317073171,-0.476806640625,0.857421875,0.21337890625,0,1760598746.2536845
-4.329268292682928,1.402439024390244,3.963414634146342,-0.46240234375,0.8408203125,0.2308349609375,0,1760598746.3623292
0.7926829268292683,0.6707317073170732,-1.3414634146341464,-0.4588623046875,0.8314208984375,0.220703125,0,1760598746.4709227
-8.109756097560977,3.780487804878049,-6.402439024390245,-0.468017578125,0.8153076171875,0.1890869140625,0,1760598746.579543
-6.585365853658537,0.7317073170731708,-7.743902439024391,-0.4833984375,0.858642578125,0.285888671875,0,1760598746.6881773
-1.9512195121951221,-15.182926829268293,1.5853658536585367,-0.484619140625,0.8497314453125,0.252685546875,0,1760598746.7968013
1.5853658536585367,-1.524390243902439,-5.670731707317073,-0.4757080078125,0.8271484375,0.21484375,0,1760598746.9054067
2.073170731707317,-3.231707317073171,-3.9024390243902443,-0.5108642578125,0.853515625,0.24951171875,0,1760598747.0139704
0.7926829268292683,3.231707317073171,3.1097560975609757,-0.4859619140625,0.839111328125,0.2198486328125,0,1760598747.122487
-1.2804878048780488,8.902439024390244,0.7317073170731708,-0.5087890625,0.8150634765625,0.2247314453125,0,1760598747.2310584
3.963414634146342,8.78048780487805,-0.9146341463414634,-0.4989013671875,0.811279296875,0.1749267578125,0,1760598747.3396168
-2.987804878048781,3.414634146341464,-6.951219512195123,-0.4947509765625,0.8348388671875,0.2066650390625,0,1760598747.4482555
0.48780487804878053,1.402439024390244,-7.621951219512196,-0.5008544921875,0.8690185546875,0.1959228515625,0,1760598747.5569127
6.341463414634147,-0.48780487804878053,-4.573170731707317,-0.510009765625,0.8128662109375,0.1927490234375,0,1760598747.6654825
-0.30487804878048785,-15.487804878048783,5.426829268292684,-0.509765625,0.8408203125,0.181640625,0,1760598747.7740645
-6.2804878048780495,6.707317073170732,3.658536585365854,-0.4844970703125,0.8311767578125,0.1749267578125,0,1760598747.8825853
-1.3414634146341464,7.621951219512196,2.6219512195121952,-0.4998779296875,0.82763671875,0.198974609375,0,1760598747.991195
-3.231707317073171,2.6219512195121952,-0.6707317073170732,-0.505615234375,0.8062744140625,0.185791015625,0,1760598748.099713
-0.9146341463414634,-0.853658536585366,3.048780487804878,-0.494384765625,0.8416748046875,0.191162109375,0,1760598748.2082713
-3.1097560975609757,-2.987804878048781,2.987804878048781,-0.48095703125,0.82763671875,0.1839599609375,0,1760598748.3169148
3.536585365853659,0.12195121951219513,2.8658536585365857,-0.486328125,0.8482666015625,0.194091796875,0,1760598748.4254785
5.426829268292684,-4.878048780487806,-0.30487804878048785,-0.4827880859375,0.84765625,0.1962890625,0,1760598748.534777
5.487804878048781,-9.390243902439025,-1.707317073170732,-0.482421875,0.8448486328125,0.2135009765625,0,1760598748.6433642
5.3048780487804885,-10.0,-0.48780487804878053,-0.47021484375,0.8404541015625,0.1964111328125,0,1760598748.7527213
-0.7317073170731708,-13.902439024390246,1.3414634146341464,-0.488525390625,0.8486328125,0.212646484375,0,1760598748.8615267
4.878048780487806,-17.865853658536587,1.6463414634146343,-0.46533203125,0.8172607421875,0.2176513671875,0,1760598748.970092
2.439024390243903,-17.31707317073171,-3.5975609756097566,-0.4537353515625,0.84619140625,0.1986083984375,0,1760598749.0787814
1.6463414634146343,-10.670731707317074,-2.1951219512195124,-0.460205078125,0.8504638671875,0.184814453125,0,1760598749.1873431
2.987804878048781,-1.829268292682927,-2.0121951219512195,-0.446044921875,0.82958984375,0.2220458984375,0,1760598749.295971
4.695121951219512,-3.963414634146342,-3.353658536585366,-0.458251953125,0.852783203125,0.2314453125,0,1760598749.4046853
-4.2682926829268295,7.500000000000001,-15.30487804878049,-0.4722900390625,0.863037109375,0.2001953125,0,1760598749.5135252
-2.0121951219512195,13.04878048780488,2.5,-0.4561767578125,0.856689453125,0.2081298828125,0,1760598749.6224053
-4.329268292682928,10.060975609756099,0.06097560975609757,-0.4593505859375,0.8546142578125,0.21240234375,0,1760598749.7311125
-4.390243902439025,11.52439024390244,-1.9512195121951221,-0.4580078125,0.82470703125,0.20751953125,0,1760598749.8398519
-4.695121951219512,6.829268292682928,-11.585365853658537,-0.45068359375,0.8240966796875,0.18896484375,0,1760598749.9484398
-2.439024390243903,5.182926829268293,-20.853658536585368,-0.4910888671875,0.8057861328125,0.2218017578125,0,1760598750.057042
-15.000000000000002,3.1097560975609757,-4.817073170731708,-0.5672607421875,0.8297119140625,0.1114501953125,0,1760598750.16564
-0.48780487804878053,-0.48780487804878053,-11.158536585365855,-0.528076171875,0.782470703125,0.18603515625,0,1760598750.2741926
0.0,-10.365853658536587,-7.439024390243903,-0.5616455078125,0.78662109375,0.326171875,0,1760598750.3827903
5.3048780487804885,4.207317073170732,-9.939024390243903,-0.5504150390625,0.7464599609375,0.1817626953125,0,1760598750.4934924
-3.231707317073171,1.9512195121951221,-10.121951219512196,-0.5870361328125,0.760986328125,0.182861328125,0,1760598750.602092
-1.2804878048780488,0.9756097560975611,3.5975609756097566,-0.6151123046875,0.76171875,0.2535400390625,0,1760598750.7107918
-6.036585365853659,-5.3048780487804885,-2.8658536585365857,-0.6690673828125,0.8507080078125,0.2559814453125,0,1760598750.819384
-7.25609756097561,4.2682926829268295,-11.28048780487805,-0.5982666015625,0.767333984375,0.2030029296875,0,1760598750.9279711
-26.52439024390244,3.1707317073170733,-19.451219512195124,-0.621337890625,0.7430419921875,0.2003173828125,0,1760598751.0365305
27.682926829268297,-3.780487804878049,-2.1341463414634148,-0.62890625,0.707275390625,0.2586669921875,0,1760598751.1450832
8.963414634146343,0.426829268292683,14.207317073170733,-0.6031494140625,0.738525390625,0.2349853515625,0,1760598751.2538126
3.963414634146342,1.5853658536585367,-3.048780487804878,-0.6279296875,0.7158203125,0.2635498046875,0,1760598751.3624227
43.10975609756098,-0.9146341463414634,-4.573170731707317,-0.5533447265625,0.7750244140625,0.2347412109375,0,1760598751.4709573
17.439024390243905,0.5487804878048781,-0.9146341463414634,-0.650146484375,0.717529296875,0.1826171875,0,1760598751.579527
-1.402439024390244,3.048780487804878,1.1585365853658538,-0.61279296875,0.7398681640625,0.2247314453125,0,1760598751.6881738
1.0975609756097562,0.1829268292682927,-0.426829268292683,-0.6197509765625,0.7374267578125,0.2208251953125,0,1760598751.7967727
-4.207317073170732,-1.0365853658536586,0.06097560975609757,-0.6168212890625,0.73876953125,0.22509765625,0,1760598751.905383
-1.524390243902439,0.9756097560975611,-0.48780487804878053,-0.6138916015625,0.739501953125,0.2242431640625,0,1760598752.0140111
-2.1341463414634148,1.829268292682927,0.6707317073170732,-0.62255859375,0.7386474609375,0.21630859375,0,1760598752.1225734
1.829268292682927,-0.48780487804878053,-3.353658536585366,-0.6265869140625,0.7366943359375,0.1982421875,0,1760598752.2311003
2.1341463414634148,-0.12195121951219513,-0.7926829268292683,-0.6219482421875,0.7396240234375,0.1971435546875,0,1760598752.3397048
1.8902439024390245,1.0365853658536586,-1.3414634146341464,-0.6278076171875,0.736572265625,0.201904296875,0,1760598752.4482698
12.80487804878049,0.7317073170731708,-2.378048780487805,-0.6182861328125,0.7413330078125,0.197265625,0,1760598752.5568795
18.475609756097562,0.6707317073170732,-3.4756097560975614,-0.6162109375,0.7374267578125,0.187255859375,0,1760598752.66574
3.5975609756097566,0.7317073170731708,-7.317073170731708,-0.6256103515625,0.734130859375,0.220947265625,0,1760598752.7743292
1.9512195121951221,-0.48780487804878053,-2.3170731707317076,-0.6214599609375,0.7371826171875,0.2041015625,0,1760598752.8829138
9.939024390243903,0.3658536585365854,-1.524390243902439,-0.6240234375,0.7352294921875,0.2001953125,0,1760598752.9915166
-8.353658536585366,-0.6707317073170732,-0.6097560975609757,-0.6220703125,0.7349853515625,0.2261962890625,0,1760598753.1000817
-5.853658536585367,-1.2804878048780488,1.2195121951219514,-0.6199951171875,0.7357177734375,0.2198486328125,0,1760598753.2087007
3.1707317073170733,1.0365853658536586,-0.9756097560975611,-0.62158203125,0.7364501953125,0.212646484375,0,1760598753.3174324
-4.146341463414634,-0.9756097560975611,1.402439024390244,-0.6229248046875,0.7371826171875,0.2034912109375,0,1760598753.4261012
-11.52439024390244,0.48780487804878053,2.0121951219512195,-0.6212158203125,0.7342529296875,0.2171630859375,0,1760598753.534734
-13.04878048780488,-2.0121951219512195,1.0365853658536586,-0.6324462890625,0.7322998046875,0.2080078125,0,1760598753.643279
12.560975609756099,0.06097560975609757,-3.9024390243902443,-0.6259765625,0.734130859375,0.1966552734375,0,1760598753.7518992
2.1951219512195124,1.3414634146341464,-2.25609756097561,-0.6220703125,0.7353515625,0.2152099609375,0,1760598753.8605437
-5.487804878048781,-1.2195121951219514,-1.2195121951219514,-0.6201171875,0.7386474609375,0.2135009765625,0,1760598753.969142
9.695121951219512,0.6097560975609757,-5.2439024390243905,-0.6214599609375,0.73486328125,0.220703125,0,1760598754.0777173
-8.353658536585366,0.9146341463414634,0.7317073170731708,-0.61572265625,0.7362060546875,0.22900390625,0,1760598754.1863194
-12.560975609756099,-0.24390243902439027,0.48780487804878053,-0.623291015625,0.748291015625,0.2320556640625,0,1760598754.2951317
-4.878048780487806,-2.1341463414634148,1.2804878048780488,-0.6221923828125,0.7386474609375,0.213134765625,0,1760598754.4041166
2.8658536585365857,-0.1829268292682927,-1.6463414634146343,-0.623291015625,0.736328125,0.213623046875,0,1760598754.512871
-0.7926829268292683,0.12195121951219513,0.30487804878048785,-0.6217041015625,0.739990234375,0.2115478515625,0,1760598754.6214728
-13.658536585365855,0.12195121951219513,-0.9146341463414634,-0.61962890625,0.73486328125,0.224609375,0,1760598754.7301598
-1.402439024390244,-0.06097560975609757,15.060975609756099,-0.617919921875,0.7364501953125,0.217529296875,0,1760598754.8390746
-6.341463414634147,-0.48780487804878053,-0.3658536585365854,-0.6219482421875,0.7344970703125,0.2222900390625,0,1760598754.9476826
-2.5609756097560976,-0.9146341463414634,0.6707317073170732,-0.6234130859375,0.737060546875,0.2032470703125,0,1760598755.0563514
0.3658536585365854,0.6707317073170732,-0.06097560975609757,-0.6236572265625,0.7362060546875,0.2069091796875,0,1760598755.1649387
5.365853658536586,-0.7317073170731708,-1.7682926829268295,-0.6224365234375,0.737548828125,0.2056884765625,0,1760598755.2736409
2.3170731707317076,0.06097560975609757,-1.0365853658536586,-0.6248779296875,0.73486328125,0.2069091796875,0,1760598755.3822982
-4.573170731707317,1.7682926829268295,-1.402439024390244,-0.62548828125,0.7330322265625,0.2183837890625,0,1760598755.4931936
-5.975609756097562,-0.06097560975609757,0.06097560975609757,-0.6214599609375,0.7381591796875,0.21142578125,0,1760598755.6017802
-5.060975609756098,-0.3658536585365854,0.3658536585365854,-0.6258544921875,0.7376708984375,0.2183837890625,0,1760598755.7103689
0.48780487804878053,-0.426829268292683,-0.3658536585365854,-0.6234130859375,0.7337646484375,0.2000732421875,0,1760598755.8189275
1.5853658536585367,0.06097560975609757,-2.0121951219512195,-0.627685546875,0.7333984375,0.222412109375,0,1760598755.9276009
2.6219512195121952,-1.1585365853658538,-1.6463414634146343,-0.625732421875,0.736083984375,0.209228515625,0,1760598756.0362365
2.1951219512195124,-0.48780487804878053,-1.6463414634146343,-0.62255859375,0.736572265625,0.2138671875,0,1760598756.144847
3.536585365853659,0.06097560975609757,-1.402439024390244,-0.625244140625,0.7353515625,0.213134765625,0,1760598756.2534559
-1.2804878048780488,-0.7317073170731708,-0.7926829268292683,-0.621826171875,0.73681640625,0.2137451171875,0,1760598756.3624237
-3.780487804878049,-0.1829268292682927,-0.1829268292682927,-0.6177978515625,0.73583984375,0.2137451171875,0,1760598756.4711297
6.402439024390245,-0.1829268292682927,-3.7195121951219514,-0.6204833984375,0.736572265625,0.2147216796875,0,1760598756.5798159
1.6463414634146343,0.3658536585365854,-0.30487804878048785,-0.61865234375,0.7376708984375,0.2127685546875,0,1760598756.6884441
1.8902439024390245,-0.30487804878048785,-1.2195121951219514,-0.6234130859375,0.73583984375,0.207763671875,0,1760598756.7971156
4.390243902439025,-0.48780487804878053,-1.4634146341463417,-0.627685546875,0.7369384765625,0.2142333984375,0,1760598756.9057398
-1.6463414634146343,-0.30487804878048785,-0.6707317073170732,-0.6112060546875,0.7318115234375,0.2216796875,0,1760598757.014296
3.963414634146342,-0.6707317073170732,-1.3414634146341464,-0.623046875,0.736572265625,0.2159423828125,0,1760598757.1228802
-4.329268292682928,0.7926829268292683,0.12195121951219513,-0.6202392578125,0.73583984375,0.220458984375,0,1760598757.231442
-5.3048780487804885,1.2804878048780488,2.3170731707317076,-0.618896484375,0.7366943359375,0.223876953125,0,1760598757.3400512
-8.597560975609756,-0.48780487804878053,0.426829268292683,-0.629638671875,0.736083984375,0.219482421875,0,1760598757.448669
-2.8658536585365857,15.426829268292684,0.0,-0.6259765625,0.733642578125,0.212158203125,0,1760598757.5572405
-0.3658536585365854,0.06097560975609757,0.0,-0.640380859375,0.7388916015625,0.1988525390625,0,1760598757.665813
5.3048780487804885,-0.24390243902439027,-2.3170731707317076,-0.623779296875,0.7354736328125,0.201904296875,0,1760598757.7743917
11.52439024390244,-1.707317073170732,-2.378048780487805,-0.629150390625,0.7353515625,0.1800537109375,0,1760598757.882927
5.0,0.06097560975609757,-3.4756097560975614,-0.627197265625,0.7318115234375,0.208984375,0,1760598757.9915442
